frame	time(s)	intensity	nformants	F1(Hz)	B1(Hz)	F2(Hz)	B2(Hz)	F3(Hz)	B3(Hz)	F4(Hz)	B4(Hz)	F5(Hz)	B5(Hz)
1	0.025	0.003	5	463.783	50.843	2147.417	244.119	2531.105	434.702	3616.613	311.128	4231.081	237.203
2	0.026	0.003	5	462.271	53.641	2159.412	254.334	2542.911	499.230	3630.179	327.060	4232.731	261.699
3	0.027	0.003	5	460.917	57.885	2173.238	256.284	2565.734	587.113	3652.473	347.856	4241.876	296.783
4	0.028	0.003	5	459.736	63.677	2185.855	250.474	2601.362	681.637	3682.015	370.990	4257.291	345.139
5	0.029	0.003	5	458.685	71.019	2196.653	242.155	2642.718	752.725	3716.705	390.846	4277.803	406.649
6	0.030	0.003	5	457.685	79.990	2207.465	234.684	2676.932	779.381	3754.265	400.267	4304.022	478.657
7	0.031	0.003	5	456.621	90.711	2219.026	227.965	2696.315	763.268	3791.390	395.475	4337.450	556.033
8	0.032	0.003	5	455.338	103.226	2229.944	220.918	2702.265	719.430	3824.716	379.433	4378.136	631.516
9	0.033	0.003	5	453.655	117.484	2238.220	213.025	2700.129	662.656	3852.664	358.680	4423.535	697.727
10	0.034	0.003	5	451.418	133.299	2242.662	204.312	2694.678	603.413	3875.262	338.811	4469.224	749.365
11	0.035	0.003	5	448.580	150.140	2243.284	194.903	2689.187	548.933	3892.960	323.262	4510.246	783.819
12	0.036	0.003	5	445.279	166.799	2241.027	184.922	2685.819	504.139	3905.949	313.922	4542.304	800.516
13	0.037	0.003	5	441.894	181.235	2237.219	174.644	2685.934	471.739	3914.026	311.692	4562.700	799.950
14	0.038	0.003	5	438.962	191.003	2233.077	164.580	2690.191	452.345	3916.680	316.627	4570.972	783.218
15	0.039	0.003	5	436.933	194.310	2229.441	155.410	2698.528	444.953	3913.283	327.785	4569.016	752.363
16	0.040	0.003	5	435.909	191.024	2226.790	147.875	2710.129	447.597	3903.402	342.976	4560.466	711.038
17	0.041	0.003	5	435.627	182.712	2225.412	142.701	2723.494	457.921	3887.241	358.816	4549.361	664.520
18	0.042	0.003	5	435.692	171.721	2225.559	140.519	2736.715	473.607	3865.987	371.513	4538.719	618.575
19	0.043	0.003	5	435.799	160.153	2227.523	141.765	2747.976	492.705	3841.731	378.273	4529.807	577.745
20	0.044	0.003	5	435.813	149.341	2231.593	146.527	2756.165	513.938	3816.893	378.387	4522.397	544.303
21	0.045	0.003	5	435.724	139.864	2237.933	154.373	2761.279	536.910	3793.535	373.259	4515.535	518.391
22	0.046	0.003	5	435.572	131.799	2246.364	164.207	2764.361	561.959	3772.962	365.497	4508.303	498.753
23	0.047	0.003	5	435.394	125.011	2256.076	174.365	2766.960	589.351	3755.681	357.664	4500.270	483.389
24	0.048	0.003	5	435.187	119.324	2265.441	183.111	2770.437	618.030	3741.631	351.359	4491.582	469.927
25	0.049	0.003	5	434.906	114.597	2272.208	189.364	2775.438	644.809	3730.450	346.941	4482.688	455.794
26	0.050	0.003	5	434.470	110.677	2274.180	193.001	2781.776	665.119	3721.643	343.831	4473.958	438.440
27	0.051	0.003	5	433.784	107.345	2269.957	194.259	2788.900	675.249	3714.635	341.087	4465.437	415.795
28	0.052	0.003	5	432.772	104.296	2259.340	192.888	2796.579	674.509	3708.742	337.931	4456.873	386.889
29	0.053	0.003	5	431.404	101.226	2243.386	188.038	2805.114	665.825	3703.171	334.008	4447.945	352.323
30	0.054	0.003	5	429.716	97.982	2224.214	179.092	2814.817	654.566	3697.084	329.360	4438.525	314.239
31	0.055	0.003	5	427.815	94.691	2204.464	166.666	2825.301	646.454	3689.775	324.232	4428.822	275.711
32	0.056	0.003	5	425.862	91.799	2186.503	152.781	2835.076	645.699	3680.953	318.860	4419.346	239.859
33	0.057	0.003	5	424.056	89.989	2171.787	140.113	2841.604	653.911	3671.052	313.415	4410.742	209.116
34	0.058	0.003	5	422.607	90.013	2160.704	131.050	2841.901	669.550	3661.402	308.214	4403.603	184.932
35	0.059	0.003	5	421.709	92.499	2152.816	127.206	2833.816	687.896	3654.023	304.112	4398.358	167.900
36	0.060	0.003	5	421.497	97.761	2147.259	129.404	2817.560	702.366	3650.947	302.560	4395.232	158.041
37	0.061	0.003	5	422.012	105.664	2143.076	137.826	2796.166	707.620	3653.333	304.790	4394.247	154.974
38	0.062	0.003	5	423.170	115.576	2139.407	152.116	2774.039	702.479	3660.889	310.579	4395.214	157.844
39	0.063	0.003	5	424.766	126.483	2135.577	171.411	2754.798	690.048	3671.869	317.905	4397.739	165.178
40	0.064	0.003	5	426.527	137.225	2131.114	194.370	2740.240	675.389	3683.681	324.013	4401.253	174.928
41	0.065	0.003	5	428.189	146.764	2125.736	219.236	2730.577	663.117	3693.845	326.935	4405.067	184.820
42	0.066	0.003	5	429.585	154.399	2119.340	243.945	2725.020	656.385	3700.780	326.203	4408.459	192.850
43	0.067	0.003	5	430.702	159.919	2112.058	266.409	2722.150	657.180	3704.001	322.589	4410.768	197.677
44	0.068	0.003	5	431.687	163.720	2104.397	285.030	2720.070	667.047	3703.857	317.494	4411.511	198.850
45	0.069	0.003	5	432.788	166.785	2097.265	299.289	2716.604	687.291	3701.261	312.492	4410.549	196.947
46	0.070	0.003	5	434.246	170.413	2091.692	309.773	2709.956	718.220	3697.592	309.102	4408.231	193.593
47	0.071	0.003	5	436.157	175.660	2088.257	317.232	2699.874	757.844	3694.620	308.717	4405.343	191.163
48	0.072	0.003	5	438.377	182.718	2086.577	321.320	2688.461	801.212	3694.145	312.430	4402.777	192.065
49	0.073	0.003	5	440.535	190.659	2085.335	320.462	2679.322	841.148	3697.440	320.505	4401.151	197.917
50	0.074	0.003	5	442.171	197.790	2083.052	313.219	2675.131	870.191	3704.902	331.862	4400.673	209.077
51	0.075	0.003	5	442.946	202.448	2079.108	299.718	2675.672	883.160	3716.008	344.231	4401.230	224.609
52	0.076	0.003	5	442.799	203.736	2074.024	281.945	2678.067	879.133	3729.391	355.092	4402.469	242.405
53	0.077	0.003	5	442.007	201.830	2068.847	263.075	2678.764	861.533	3742.960	362.935	4403.753	259.277
54	0.078	0.003	5	441.112	197.839	2064.377	246.467	2675.559	836.707	3754.249	368.172	4404.116	271.373
55	0.079	0.003	5	440.769	193.414	2060.832	234.806	2668.432	812.206	3761.049	372.862	4402.530	275.472
56	0.080	0.003	5	441.536	190.240	2057.949	229.618	2659.140	795.176	3762.159	379.097	4398.629	271.027
57	0.081	0.003	5	443.667	189.551	2055.210	231.099	2650.195	790.733	3757.969	387.389	4393.234	261.289
58	0.082	0.003	5	447.028	191.808	2052.001	238.090	2644.025	800.705	3750.520	396.770	4387.850	251.902
59	0.083	0.003	5	451.161	196.655	2047.627	248.176	2642.601	823.164	3742.661	406.240	4383.659	248.001
60	0.084	0.003	5	455.460	203.086	2041.313	258.032	2647.318	852.568	3736.822	415.567	4381.132	252.538
61	0.085	0.002	5	459.346	209.734	2032.378	264.093	2658.697	880.284	3734.458	424.831	4380.303	266.511
62	0.086	0.002	5	462.373	215.197	2020.660	263.508	2675.761	895.988	3736.294	433.615	4381.139	289.761
63	0.087	0.002	5	464.277	218.405	2006.845	255.081	2695.501	890.639	3742.625	440.469	4383.740	321.266
64	0.088	0.002	5	464.965	218.897	1992.276	239.687	2713.454	860.427	3753.139	443.000	4388.324	358.780
65	0.089	0.002	5	464.490	216.858	1978.287	219.750	2725.708	809.050	3766.504	439.063	4394.991	398.313
66	0.090	0.002	5	462.993	212.910	1965.642	198.111	2730.845	745.902	3780.532	428.628	4403.340	434.396
67	0.091	0.002	5	460.659	207.826	1954.439	177.119	2730.080	681.431	3793.183	414.308	4412.384	461.766
68	0.092	0.002	5	457.678	202.360	1944.342	158.307	2725.965	623.459	3803.389	399.669	4421.122	477.593
69	0.093	0.002	5	454.221	197.209	1934.866	142.486	2721.167	576.095	3810.919	387.246	4429.297	482.383
70	0.094	0.002	5	450.426	193.024	1925.592	129.995	2717.930	540.040	3815.786	377.842	4437.498	478.940
71	0.095	0.002	5	446.383	190.356	1916.287	120.976	2717.832	512.822	3817.761	370.720	4446.507	470.405
72	0.096	0.002	5	442.130	189.594	1906.958	115.663	2721.255	488.737	3816.257	363.853	4456.526	458.677
73	0.097	0.002	5	437.669	191.000	1897.909	114.687	2726.555	460.233	3810.679	354.378	4466.821	444.120
74	0.098	0.002	5	433.008	194.848	1889.802	119.315	2730.203	422.752	3801.107	340.259	4475.817	426.893
75	0.099	0.002	5	428.238	201.234	1883.648	131.470	2729.065	379.419	3788.716	322.713	4481.674	408.857
76	0.100	0.002	5	423.600	209.230	1880.677	153.594	2722.633	338.304	3775.480	306.023	4483.489	393.603
77	0.101	0.001	5	419.516	216.322	1882.252	188.563	2712.462	305.645	3763.427	294.484	4482.204	384.588
78	0.102	0.001	5	416.515	219.158	1890.009	239.701	2700.339	283.547	3754.095	290.536	4480.190	384.182
79	0.103	0.001	5	414.991	215.154	1906.052	310.603	2687.253	271.641	3748.405	295.240	4479.976	394.152
80	0.104	0.001	5	414.928	203.688	1932.824	404.297	2673.235	268.663	3746.751	309.301	4483.035	415.968
81	0.105	0.001	5	415.861	186.288	1972.282	521.414	2657.585	272.549	3749.140	333.539	4489.096	450.175
82	0.106	0.001	5	417.130	165.991	2023.960	657.683	2639.549	279.371	3755.423	368.744	4496.037	495.035
83	0.107	0.001	5	418.225	146.191	2081.853	801.417	2619.971	282.734	3765.668	415.060	4500.377	544.881
84	0.108	0.001	5	418.937	129.387	2132.459	930.891	2603.047	277.552	3780.424	471.209	4498.304	589.379
85	0.109	0.001	5	419.252	116.471	2160.191	1016.922	2593.861	266.196	3800.383	534.327	4487.041	615.683
86	0.110	0.001	5	419.199	106.921	2157.852	1040.849	2593.427	253.615	3825.078	601.047	4466.052	613.496
87	0.111	0.001	5	418.779	99.542	2129.483	1008.463	2599.098	239.558	3851.183	668.932	4437.792	578.964
88	0.112	0.001	5	417.996	93.171	2085.572	940.659	2607.027	221.387	3871.857	735.506	4407.837	515.497
89	0.113	0.001	5	416.878	87.049	2036.734	857.718	2613.910	198.941	3879.176	793.456	4382.902	434.787
90	0.114	0.001	5	415.495	80.877	1989.920	772.906	2618.107	174.677	3869.818	830.050	4366.047	353.865
91	0.115	0.001	5	413.940	74.687	1948.159	693.398	2619.466	151.448	3847.094	835.766	4355.602	284.900
92	0.116	0.001	5	412.318	68.671	1912.026	622.496	2618.524	131.124	3817.726	808.621	4349.028	231.854
93	0.117	0.001	5	410.723	63.064	1881.164	561.384	2615.915	114.419	3789.238	753.030	4345.031	194.310
94	0.118	0.001	5	409.235	58.104	1855.187	510.456	2612.133	101.269	3767.697	678.233	4343.449	170.251
95	0.119	0.001	5	407.902	53.994	1833.820	469.897	2607.480	91.268	3755.281	595.240	4344.612	156.928
96	0.120	0.001	5	406.731	50.859	1816.729	439.464	2602.125	83.879	3749.828	513.565	4348.684	151.164
97	0.121	0.001	5	405.688	48.731	1803.483	418.122	2596.278	78.502	3747.065	439.999	4355.193	149.881
98	0.122	0.001	5	404.709	47.586	1793.630	404.051	2590.368	74.548	3743.415	378.663	4362.999	150.829
99	0.123	0.001	5	403.724	47.379	1786.672	394.977	2585.037	71.597	3737.264	331.180	4370.715	152.995
100	0.124	0.001	5	402.671	48.084	1781.977	388.674	2580.892	69.516	3728.660	297.205	4377.220	156.339
101	0.125	0.001	5	401.512	49.701	1778.760	383.474	2578.246	68.439	3718.509	275.337	4381.919	161.223
102	0.126	0.001	5	400.234	52.266	1776.218	378.544	2577.042	68.628	3707.952	263.978	4384.703	167.988
103	0.127	0.001	5	398.842	55.818	1773.743	373.797	2576.964	70.341	3698.060	261.794	4385.764	176.750
104	0.128	0.001	5	397.348	60.370	1771.029	369.534	2577.576	73.746	3689.750	267.784	4385.368	187.236
105	0.129	0.001	5	395.772	65.865	1768.009	366.015	2578.398	78.837	3683.779	281.064	4383.680	198.584
106	0.130	0.0007	5	394.137	72.128	1764.662	363.131	2578.944	85.351	3680.696	300.511	4380.733	209.299
107	0.131	0.0007	5	392.469	78.850	1760.862	360.275	2578.776	92.694	3680.739	324.402	4376.601	217.617
108	0.132	0.0007	5	390.792	85.597	1756.359	356.425	2577.601	99.988	3683.743	350.261	4371.653	222.340
109	0.133	0.0007	5	389.132	91.874	1750.906	350.425	2575.389	106.298	3689.155	375.213	4366.624	223.593
110	0.134	0.0007	5	387.509	97.236	1744.431	341.385	2572.419	110.987	3696.195	396.870	4362.360	222.876
111	0.135	0.0006	5	385.942	101.387	1737.138	329.032	2569.176	113.962	3704.065	414.248	4359.464	222.411
112	0.136	0.0006	5	384.435	104.234	1729.436	313.819	2566.146	115.624	3712.148	428.002	4358.120	224.396
113	0.137	0.0006	5	382.971	105.871	1721.782	296.761	2563.633	116.595	3720.169	439.887	4358.151	230.692
114	0.138	0.0006	5	381.511	106.531	1714.550	279.141	2561.705	117.444	3728.310	451.905	4359.172	242.920
115	0.139	0.0006	5	380.003	106.541	1707.999	262.237	2560.255	118.554	3737.237	465.549	4360.730	262.737
116	0.140	0.0006	5	378.380	106.274	1702.289	247.134	2559.115	120.142	3747.902	481.112	4362.421	291.958
117	0.141	0.0006	5	376.558	106.088	1697.495	234.623	2558.149	122.345	3760.958	496.963	4364.036	332.170
118	0.142	0.0006	5	374.436	106.277	1693.608	225.171	2557.304	125.363	3775.564	509.130	4365.803	383.210
119	0.143	0.0005	5	371.908	107.026	1690.526	218.970	2556.623	129.602	3787.897	512.592	4368.611	439.977
120	0.144	0.0005	5	368.881	108.386	1688.060	215.986	2556.238	135.746	3791.253	505.196	4373.484	489.328
121	0.145	0.0005	5	365.301	110.243	1685.952	215.891	2556.349	144.606	3779.864	489.793	4379.882	514.040
122	0.146	0.0005	5	361.154	112.259	1683.872	217.877	2557.152	156.780	3753.319	469.645	4385.482	505.864
123	0.147	0.0005	5	356.469	113.863	1681.414	220.572	2558.772	172.370	3716.466	444.848	4388.442	471.746
124	0.148	0.0004	5	351.310	114.379	1678.140	222.271	2561.271	191.013	3676.149	415.237	4388.503	425.612
125	0.149	0.0004	5	345.758	113.303	1673.698	221.454	2564.753	212.245	3638.252	383.026	4386.314	379.004
126	0.150	0.0004	5	339.893	110.556	1667.962	217.263	2569.461	236.019	3606.447	352.103	4382.665	338.535
127	0.151	0.0004	5	333.767	106.550	1661.090	209.696	2575.774	263.092	3582.291	326.310	4378.142	307.277
128	0.152	0.0004	5	327.381	102.031	1653.484	199.428	2584.081	295.113	3565.826	308.365	4373.128	286.518
129	0.153	0.0004	5	320.686	97.849	1645.682	187.480	2594.616	334.392	3556.124	299.533	4367.951	276.864
130	0.154	0.0004	5	313.601	94.777	1638.232	174.921	2607.329	383.488	3551.605	299.616	4363.051	278.763
131	0.155	0.0004	5	306.039	93.456	1631.568	162.691	2621.870	444.666	3550.191	306.854	4359.096	292.617
132	0.156	0.0004	5	297.942	94.361	1625.914	151.468	2637.680	518.964	3549.460	317.680	4357.011	318.411
133	0.157	0.0004	5	289.301	97.740	1621.221	141.567	2653.895	604.396	3547.110	326.904	4357.871	354.702
134	0.158	0.0004	5	280.195	103.500	1617.196	133.002	2668.766	693.301	3541.882	329.312	4362.477	397.157
135	0.159	0.0004	5	270.820	111.168	1613.465	125.737	2679.124	770.944	3534.450	322.744	4370.525	437.901
136	0.160	0.0004	5	261.513	120.037	1609.816	119.897	2681.491	819.622	3527.099	310.166	4380.001	467.955
137	0.161	0.0004	5	252.737	129.441	1606.322	115.711	2674.825	828.746	3522.137	297.952	4388.070	482.936
138	0.162	0.0004	5	245.019	138.958	1603.286	113.354	2661.829	802.095	3520.881	292.238	4393.353	487.097
139	0.163	0.0002	5	238.838	148.454	1601.135	112.934	2647.387	754.457	3524.125	297.531	4397.424	491.662
140	0.164	0.0002	5	234.499	158.068	1600.383	114.619	2636.152	701.898	3533.272	317.526	4404.345	510.590
141	0.165	0.0002	5	232.044	168.094	1601.618	118.687	2630.906	654.157	3551.270	355.372	4419.305	558.581
142	0.166	0.0002	5	231.250	178.770	1605.469	125.410	2631.777	612.879	3582.865	411.346	4448.038	652.370
143	0.167	0.0002	5	231.701	190.353	1612.668	135.066	2636.379	575.665	3632.958	477.030	4499.198	814.255
144	0.168	0.0002	5	232.848	203.809	1624.303	148.324	2641.538	543.493	3699.560	530.877	4594.047	1071.975
145	0.169	0.0002	5	234.026	221.567	1642.208	166.729	2646.188	525.628	3763.423	558.342	4785.071	1429.397
146	0.170	0.0002	5	234.462	247.297	1669.158	192.476	2652.709	538.157	3800.701	587.231	5222.371	1812.619
147	0.171	0.0002	4	233.286	284.593	1708.439	226.193	2665.932	599.791	3805.033	657.023	--undefined--	--undefined--
148	0.172	0.0001	4	229.398	336.299	1762.535	261.886	2695.480	728.303	3783.661	783.497	--undefined--	--undefined--
149	0.173	0.0001	4	220.929	405.579	1829.468	281.851	2770.595	925.475	3759.198	975.751	--undefined--	--undefined--
150	0.174	0.0001	4	204.428	495.542	1896.062	268.166	2945.301	1058.939	3801.569	1269.987	--undefined--	--undefined--
151	0.175	0.0001	4	174.804	604.847	1946.347	232.617	3093.259	910.998	4009.761	1389.570	--undefined--	--undefined--
152	0.176	0.00008	4	127.538	721.643	1979.239	198.574	3145.681	786.728	4155.270	1219.505	--undefined--	--undefined--
153	0.177	0.00008	4	70.085	819.888	2000.732	174.044	3175.565	733.067	4221.621	1056.492	--undefined--	--undefined--
154	0.178	0.00008	4	69.253	871.966	2015.465	158.380	3198.878	718.617	4252.149	940.555	--undefined--	--undefined--
155	0.179	0.00008	4	126.525	879.396	2026.143	149.693	3217.794	723.233	4264.981	859.193	--undefined--	--undefined--
156	0.180	0.00008	4	175.163	868.176	2034.267	146.954	3232.092	731.650	4269.177	796.808	--undefined--	--undefined--
157	0.181	0.00004	4	205.259	860.482	2040.543	150.315	3241.803	731.261	4270.888	741.226	--undefined--	--undefined--
158	0.182	0.00004	4	216.158	869.825	2045.014	161.079	3247.663	713.787	4274.415	684.996	--undefined--	--undefined--
159	0.183	0.00004	4	204.626	907.874	2047.022	181.612	3250.108	677.630	4281.446	625.442	--undefined--	--undefined--
160	0.184	0.00004	4	150.796	992.955	2045.014	214.979	3248.442	627.714	4290.874	564.202	--undefined--	--undefined--
161	0.185	0.00004	3	2036.261	263.711	3241.715	572.250	4300.146	506.084	--undefined--	--undefined--	--undefined--	--undefined--
162	0.186	0.00004	4	384.657	2188.418	2017.038	326.703	3230.397	518.618	4306.919	456.432	--undefined--	--undefined--
163	0.187	0.00005	4	580.318	2114.566	1984.862	394.544	3217.003	471.671	4309.734	418.370	--undefined--	--undefined--
164	0.188	0.00005	4	680.672	2118.309	1943.181	449.912	3204.907	435.295	4307.932	392.090	--undefined--	--undefined--
165	0.189	0.00005	4	764.253	2155.578	1901.707	480.961	3196.042	413.341	4301.433	376.010	--undefined--	--undefined--
166	0.190	0.00005	4	861.002	2183.968	1867.356	491.592	3190.009	407.728	4290.663	368.028	--undefined--	--undefined--
167	0.191	0.00005	4	973.266	2193.265	1839.025	492.321	3185.499	417.606	4276.778	366.191	--undefined--	--undefined--
168	0.192	0.00005	4	1091.753	2196.535	1812.345	489.781	3181.796	440.979	4261.737	369.550	--undefined--	--undefined--
169	0.193	0.00005	4	1207.571	2212.265	1784.728	485.309	3179.257	476.404	4247.761	379.137	--undefined--	--undefined--
170	0.194	0.00005	4	1315.201	2253.823	1757.022	478.087	3179.237	523.614	4236.556	398.215	--undefined--	--undefined--
171	0.195	0.00005	4	1413.745	2316.601	1732.798	470.090	3184.110	583.045	4229.001	431.635	--undefined--	--undefined--
172	0.196	0.00005	4	1508.414	2363.673	1715.774	468.807	3197.593	654.175	4225.546	484.748	--undefined--	--undefined--
173	0.197	0.00005	4	1605.474	2327.365	1707.847	484.592	3224.837	731.746	4227.214	561.484	--undefined--	--undefined--
174	0.198	0.00005	4	1697.164	2152.150	1709.396	527.095	3269.697	799.235	4236.752	659.893	--undefined--	--undefined--
175	0.199	0.00005	4	1721.383	613.676	1765.826	1828.904	3330.753	831.236	4260.367	772.850	--undefined--	--undefined--
176	0.200	0.00005	4	1739.122	743.025	1795.854	1488.661	3377.141	819.305	4291.672	848.087	--undefined--	--undefined--
177	0.201	0.00005	4	1723.959	952.959	1844.578	1134.438	3401.944	799.307	4318.024	874.592	--undefined--	--undefined--
178	0.202	0.00005	4	1643.434	944.969	1963.658	1034.004	3413.807	788.276	4335.421	862.995	--undefined--	--undefined--
179	0.203	0.00005	4	1623.468	852.747	2029.196	1052.089	3416.044	793.306	4339.222	824.697	--undefined--	--undefined--
180	0.204	0.00005	4	1615.679	740.717	2088.349	1112.439	3413.243	811.737	4332.361	773.413	--undefined--	--undefined--
181	0.205	0.00005	4	1609.113	634.474	2147.848	1192.427	3408.101	841.316	4318.056	718.408	--undefined--	--undefined--
182	0.206	0.00005	4	1603.102	548.880	2204.888	1288.829	3402.255	882.603	4298.770	665.675	--undefined--	--undefined--
183	0.207	0.00005	4	1598.238	488.561	2256.809	1405.497	3396.991	936.902	4276.872	618.318	--undefined--	--undefined--
184	0.208	0.00005	4	1594.597	453.312	2300.185	1536.979	3394.822	1001.813	4255.329	577.402	--undefined--	--undefined--
185	0.209	0.00005	4	1592.000	440.999	2327.957	1659.530	3401.957	1069.248	4237.360	544.129	--undefined--	--undefined--
186	0.210	0.00005	4	1590.170	448.234	2331.704	1738.139	3427.290	1127.980	4224.992	520.978	--undefined--	--undefined--
187	0.211	0.00005	4	1588.670	469.854	2309.484	1753.017	3474.405	1164.729	4218.339	510.220	--undefined--	--undefined--
188	0.212	0.00005	4	1586.952	498.219	2270.510	1718.102	3535.031	1167.700	4216.507	512.485	--undefined--	--undefined--
189	0.213	0.00005	4	1584.737	523.789	2229.391	1667.380	3593.602	1136.537	4218.749	526.618	--undefined--	--undefined--
190	0.214	0.00005	4	1582.306	538.191	2196.809	1631.241	3637.074	1083.438	4224.804	549.803	--undefined--	--undefined--
191	0.215	0.00005	4	1580.007	538.275	2176.748	1623.455	3659.907	1024.062	4234.390	578.191	--undefined--	--undefined--
192	0.216	0.00005	4	1577.541	526.985	2169.144	1639.756	3663.716	969.341	4246.674	609.036	--undefined--	--undefined--
193	0.217	0.00005	4	1574.276	509.953	2172.567	1665.947	3654.279	923.267	4260.574	643.104	--undefined--	--undefined--
194	0.218	0.00005	4	1570.097	491.471	2185.647	1689.920	3638.097	885.938	4275.476	685.119	--undefined--	--undefined--
195	0.219	0.00005	4	1565.731	472.890	2208.104	1709.699	3620.240	857.207	4291.546	743.138	--undefined--	--undefined--
196	0.220	0.00005	4	1562.510	453.248	2241.639	1733.075	3603.714	837.475	4310.001	828.916	--undefined--	--undefined--
197	0.221	0.00005	4	1561.798	430.609	2290.591	1769.503	3589.616	825.889	4334.327	959.389	--undefined--	--undefined--
198	0.222	0.00005	4	1564.178	403.353	2360.817	1814.727	3576.841	817.057	4374.110	1155.597	--undefined--	--undefined--
199	0.223	0.00005	4	1568.770	371.535	2448.366	1828.140	3560.129	798.817	4451.360	1417.011	--undefined--	--undefined--
200	0.224	0.00005	4	1573.331	337.710	2511.858	1741.942	3530.504	758.026	4575.537	1620.800	--undefined--	--undefined--
201	0.225	0.00005	4	1575.489	305.192	2502.725	1541.555	3488.039	689.791	4653.641	1542.621	--undefined--	--undefined--
202	0.226	0.00005	4	1574.745	274.604	2454.683	1267.891	3448.838	604.675	4636.279	1254.548	--undefined--	--undefined--
203	0.227	0.00005	4	1573.682	245.523	2420.676	997.173	3425.582	526.633	4597.753	974.827	--undefined--	--undefined--
204	0.228	0.00005	4	1575.360	220.131	2405.706	771.963	3417.332	466.472	4566.273	763.670	--undefined--	--undefined--
205	0.229	0.00005	4	1579.199	207.903	2399.937	637.823	3419.214	436.027	4547.518	650.041	--undefined--	--undefined--
206	0.230	0.00005	4	1583.637	207.282	2394.979	557.970	3425.402	426.119	4535.369	592.242	--undefined--	--undefined--
207	0.231	0.00005	4	1587.796	216.596	2389.039	516.592	3433.447	432.998	4527.229	573.333	--undefined--	--undefined--
208	0.232	0.00005	4	1591.545	233.741	2381.839	502.688	3442.318	453.658	4520.958	582.238	--undefined--	--undefined--
209	0.233	0.00005	4	1595.197	257.019	2373.206	509.920	3451.940	485.996	4514.957	612.513	--undefined--	--undefined--
210	0.234	0.00005	4	1598.920	282.466	2363.714	532.023	3461.872	523.811	4509.015	655.357	--undefined--	--undefined--
211	0.235	0.00005	4	1604.050	314.322	2350.494	571.561	3475.028	571.229	4502.187	716.435	--undefined--	--undefined--
212	0.236	0.00005	4	1610.560	349.397	2332.451	624.382	3491.031	616.835	4496.970	787.113	--undefined--	--undefined--
213	0.237	0.00003	4	1617.862	386.816	2306.526	684.038	3508.281	645.912	4497.433	855.794	--undefined--	--undefined--
214	0.238	0.00003	4	1624.028	425.961	2269.953	737.396	3521.947	641.815	4507.904	900.945	--undefined--	--undefined--
215	0.239	0.00003	4	1626.226	466.189	2225.152	767.446	3527.579	600.740	4527.503	901.179	--undefined--	--undefined--
216	0.240	0.00003	4	1622.540	504.402	2183.645	768.096	3526.425	538.901	4549.001	859.298	--undefined--	--undefined--
217	0.241	0.00003	4	1614.456	533.420	2159.204	755.681	3523.007	479.161	4566.709	802.667	--undefined--	--undefined--
218	0.242	0.00003	4	1606.939	546.799	2158.053	754.462	3520.329	436.483	4580.209	757.773	--undefined--	--undefined--
219	0.243	0.00003	4	1604.325	544.045	2180.129	776.416	3519.558	416.216	4591.413	738.154	--undefined--	--undefined--
220	0.244	0.00002	4	1607.758	529.593	2223.606	819.003	3521.360	418.947	4602.344	748.715	--undefined--	--undefined--
221	0.245	0.00002	4	1616.980	510.251	2284.981	873.419	3526.743	444.788	4614.970	792.789	--undefined--	--undefined--
222	0.246	0.00002	4	1632.548	492.113	2359.389	933.766	3537.696	495.717	4632.139	878.128	--undefined--	--undefined--
223	0.247	0.00003	4	1655.627	477.184	2444.978	998.834	3558.683	576.332	4660.674	1024.570	--undefined--	--undefined--
224	0.248	0.00003	4	1685.876	462.212	2547.129	1057.558	3601.036	689.437	4725.909	1282.524	--undefined--	--undefined--
225	0.249	0.00003	4	1719.270	441.940	2666.699	1059.287	3687.194	800.183	5004.948	1763.900	--undefined--	--undefined--
226	0.250	0.00003	4	1748.790	415.834	2761.144	961.966	3795.606	798.181	5230.299	974.680	--undefined--	--undefined--
227	0.251	0.00003	4	1768.411	390.075	2798.107	851.105	3859.204	729.698	5214.931	829.453	--undefined--	--undefined--
228	0.252	0.00003	4	1775.151	372.245	2799.057	783.509	3886.300	682.391	5223.410	784.549	--undefined--	--undefined--
229	0.253	0.00003	4	1767.448	367.431	2779.202	758.656	3892.919	671.306	5249.473	802.816	--undefined--	--undefined--
230	0.254	0.00003	4	1743.007	377.750	2741.923	768.651	3884.736	698.721	5315.979	894.121	--undefined--	--undefined--
231	0.255	0.00003	3	1698.099	400.076	2684.884	802.600	3860.002	770.128	--undefined--	--undefined--	--undefined--	--undefined--
232	0.256	0.00003	4	1630.932	418.769	2606.349	834.387	3800.927	888.424	4703.280	2342.596	--undefined--	--undefined--
233	0.257	0.00003	4	1552.217	408.029	2520.764	829.637	3675.213	950.564	4469.152	1560.086	--undefined--	--undefined--
234	0.258	0.00003	4	1485.232	366.034	2451.578	797.560	3567.673	848.221	4452.846	1190.129	--undefined--	--undefined--
235	0.259	0.00003	4	1441.724	320.902	2401.407	770.706	3513.966	719.042	4459.451	1015.400	--undefined--	--undefined--
236	0.260	0.00003	4	1417.120	292.191	2361.826	761.285	3489.231	613.081	4469.172	929.577	--undefined--	--undefined--
237	0.261	0.00003	4	1403.719	283.184	2327.023	769.247	3479.459	535.389	4479.007	894.977	--undefined--	--undefined--
238	0.262	0.00003	4	1396.364	292.120	2295.017	795.732	3478.573	484.186	4486.419	893.995	--undefined--	--undefined--
239	0.263	0.00003	4	1392.526	318.462	2265.061	848.439	3483.707	457.707	4487.989	917.277	--undefined--	--undefined--
240	0.264	0.00003	4	1391.662	364.548	2234.926	943.447	3492.789	455.936	4479.553	961.402	--undefined--	--undefined--
241	0.265	0.00003	4	1395.168	436.265	2196.955	1111.634	3503.335	482.304	4455.752	1031.301	--undefined--	--undefined--
242	0.266	0.00003	4	1408.031	545.478	2119.552	1428.683	3511.497	548.051	4404.468	1146.470	--undefined--	--undefined--
243	0.267	0.00003	4	1451.865	717.322	1720.735	1995.113	3505.914	687.825	4269.157	1336.326	--undefined--	--undefined--
244	0.268	0.00003	4	1165.460	1404.013	1590.056	787.693	3389.804	911.648	3977.666	1080.258	--undefined--	--undefined--
245	0.269	0.00003	4	1041.246	1162.624	1655.537	723.988	3242.743	809.303	3973.349	720.551	--undefined--	--undefined--
246	0.270	0.00003	5	1005.504	1044.267	1692.761	710.172	3180.279	689.952	3988.254	558.833	5370.094	1030.939
247	0.271	0.00003	5	1004.114	972.184	1726.271	730.507	3143.752	611.956	3999.488	463.176	5277.344	908.200
248	0.272	0.00003	5	1022.449	914.676	1762.768	770.999	3116.960	564.226	4007.994	400.788	5238.906	833.540
249	0.273	0.00003	5	1053.362	855.467	1803.910	820.237	3094.969	537.453	4014.696	358.429	5214.840	784.344
250	0.274	0.00003	5	1091.960	789.705	1847.588	869.660	3075.791	526.055	4020.037	329.913	5196.012	750.100
251	0.275	0.00003	5	1134.760	721.718	1888.079	916.279	3057.974	527.107	4024.050	312.794	5179.600	727.148
252	0.276	0.00003	5	1179.639	661.079	1917.303	965.489	3039.884	539.292	4026.399	307.168	5165.220	717.019
253	0.277	0.00003	5	1226.032	616.924	1927.618	1031.142	3019.962	562.075	4026.443	315.168	5153.542	725.019
254	0.278	0.00003	5	1275.137	591.119	1915.552	1132.570	2997.841	595.419	4023.397	340.639	5145.694	758.379
255	0.279	0.00003	5	1328.229	571.852	1886.678	1294.211	2975.089	641.173	4016.615	388.781	5143.495	825.179
256	0.280	0.00003	5	1379.498	537.365	1864.347	1547.835	2953.431	706.234	4006.014	465.304	5151.179	936.281
257	0.281	0.00003	5	1415.533	486.886	1894.048	1921.064	2930.550	805.365	3992.830	574.833	5183.032	1114.568
258	0.282	0.00003	5	1434.049	440.827	2058.186	2482.492	2891.519	966.095	3980.746	721.992	5341.595	1440.965
259	0.283	0.00003	4	1441.190	407.425	2756.362	1173.942	2993.191	3601.489	3978.793	931.092	--undefined--	--undefined--
260	0.284	0.00003	4	1441.728	384.784	2590.066	1059.231	3677.221	1444.209	4116.140	1252.615	--undefined--	--undefined--
261	0.285	0.00003	4	1438.411	369.128	2514.878	909.176	3608.032	1057.932	4254.995	1120.315	--undefined--	--undefined--
262	0.286	0.00003	4	1433.059	357.952	2467.131	792.496	3597.957	881.964	4311.112	1025.029	--undefined--	--undefined--
263	0.287	0.00003	4	1426.581	350.779	2426.483	698.251	3593.385	744.265	4356.092	956.271	--undefined--	--undefined--
264	0.288	0.00003	4	1421.322	351.258	2392.634	640.614	3583.542	639.916	4392.064	907.258	--undefined--	--undefined--
265	0.289	0.00003	4	1417.727	362.051	2357.830	609.102	3566.746	549.318	4422.896	867.301	--undefined--	--undefined--
266	0.290	0.00003	4	1416.747	386.094	2319.296	600.170	3545.711	469.808	4447.105	838.368	--undefined--	--undefined--
267	0.291	0.00003	4	1419.442	424.250	2276.353	608.414	3524.885	401.255	4462.941	823.379	--undefined--	--undefined--
268	0.292	0.00003	4	1427.044	474.226	2231.231	629.545	3508.207	345.900	4468.094	823.944	--undefined--	--undefined--
269	0.293	0.00003	4	1440.842	529.967	2188.304	663.928	3497.477	306.382	4460.165	839.413	--undefined--	--undefined--
270	0.294	0.00003	4	1461.438	581.427	2152.221	717.150	3492.344	283.578	4438.323	866.479	--undefined--	--undefined--
271	0.295	0.00003	4	1486.641	616.011	2126.998	796.997	3491.420	276.381	4405.136	901.063	--undefined--	--undefined--
272	0.296	0.00003	4	1509.177	625.389	2116.106	908.432	3493.387	282.937	4366.559	943.735	--undefined--	--undefined--
273	0.297	0.00002	4	1519.355	615.506	2120.051	1049.765	3497.601	301.953	4328.927	1005.121	--undefined--	--undefined--
274	0.298	0.00002	4	1512.808	602.215	2131.808	1220.675	3504.263	333.261	4294.734	1107.559	--undefined--	--undefined--
275	0.299	0.00006	4	1491.955	594.308	2136.806	1439.357	3514.528	377.602	4258.883	1290.656	--undefined--	--undefined--
276	0.300	0.00006	4	1462.446	589.932	2100.534	1755.292	3531.209	435.784	4194.158	1656.728	--undefined--	--undefined--
277	0.301	0.00006	4	1432.143	585.102	1891.307	2073.075	3560.940	504.518	3720.668	2353.629	--undefined--	--undefined--
278	0.302	0.00006	4	1410.358	581.254	1660.024	1966.769	3301.509	1605.005	3611.632	554.234	--undefined--	--undefined--
279	0.303	0.00007	5	1407.229	581.751	1504.861	1835.104	3183.761	1245.865	3661.406	547.889	5413.773	846.977
280	0.304	0.00007	5	1325.733	1815.015	1431.496	569.861	3115.792	1074.655	3691.299	523.703	5248.668	707.279
281	0.305	0.00007	5	1064.692	1963.642	1468.156	516.180	3062.879	982.411	3707.811	507.620	5189.690	634.483
282	0.306	0.00007	5	644.646	2182.361	1496.882	454.149	3020.026	922.046	3720.007	505.558	5155.362	600.913
283	0.307	0.0001	4	1522.971	420.852	2998.338	863.548	3738.859	516.583	5133.111	586.244	--undefined--	--undefined--
284	0.308	0.0001	4	1556.235	419.082	2999.988	793.895	3771.901	529.926	5120.100	579.933	--undefined--	--undefined--
285	0.309	0.0001	5	84.794	1190.666	1594.639	427.976	3008.143	731.547	3812.139	533.937	5116.504	591.698
286	0.310	0.0001	5	283.556	825.404	1618.746	444.371	3013.259	721.296	3844.404	542.392	5125.577	649.852
287	0.311	0.0002	5	323.845	645.763	1615.720	498.655	3022.749	799.336	3863.012	583.651	5163.281	799.389
288	0.312	0.0002	5	331.814	605.990	1587.367	620.021	3063.067	991.280	3874.338	683.615	5369.216	1146.849
289	0.313	0.0002	4	323.393	691.854	1544.599	837.758	3234.734	1225.189	3916.794	876.843	--undefined--	--undefined--
290	0.314	0.0002	4	271.309	1004.732	1529.735	1179.073	3386.214	982.711	4045.464	914.582	--undefined--	--undefined--
291	0.315	0.0002	4	764.462	1134.196	1660.980	1446.225	3366.135	802.442	4086.404	790.976	--undefined--	--undefined--
292	0.316	0.0002	4	807.366	854.941	1672.034	1540.270	3314.169	722.678	4066.543	719.344	--undefined--	--undefined--
293	0.317	0.0002	4	829.776	783.888	1579.034	1819.476	3251.679	680.096	4017.051	690.855	--undefined--	--undefined--
294	0.318	0.0003	4	873.151	791.731	1297.213	2465.064	3187.238	655.295	3947.292	681.816	--undefined--	--undefined--
295	0.319	0.0003	3	941.227	766.518	3125.815	633.869	3870.870	670.475	--undefined--	--undefined--	--undefined--	--undefined--
296	0.320	0.0003	4	259.540	859.435	980.637	704.291	3074.250	606.929	3803.074	657.775	--undefined--	--undefined--
297	0.321	0.0003	5	330.493	649.863	997.345	668.829	3036.453	580.241	3745.547	656.984	4854.258	2126.551
298	0.322	0.0003	5	367.044	518.131	1003.731	665.133	3011.562	558.842	3693.795	663.075	4548.272	1493.220
299	0.323	0.0003	5	394.592	424.057	1003.502	693.231	2999.439	543.152	3653.164	668.388	4450.143	1159.019
300	0.324	0.0003	5	418.521	352.624	998.016	755.718	3000.016	533.562	3628.952	685.027	4408.737	993.096
301	0.325	0.0004	5	439.643	294.852	988.457	855.027	3011.179	529.632	3618.113	723.842	4387.685	924.571
302	0.326	0.0004	5	457.021	245.404	975.934	990.793	3028.972	530.314	3613.997	782.130	4374.840	911.201
303	0.327	0.0004	5	469.638	202.456	960.779	1157.240	3048.825	537.288	3607.046	843.276	4367.499	922.368
304	0.328	0.0004	5	477.468	166.211	942.576	1339.563	3066.916	557.320	3584.536	877.030	4368.888	930.519
305	0.329	0.0004	5	481.436	136.915	922.712	1509.671	3079.720	600.850	3540.274	846.824	4382.362	914.381
306	0.330	0.0004	5	482.824	114.081	907.850	1630.151	3079.161	673.621	3491.081	735.635	4403.837	867.726
307	0.331	0.0004	5	482.821	96.708	906.873	1676.260	3056.276	747.062	3465.602	589.070	4424.120	799.448
308	0.332	0.0004	5	482.347	83.696	921.201	1654.976	3027.723	786.114	3459.997	472.219	4437.090	724.207
309	0.333	0.0005	5	482.005	74.104	943.496	1594.515	3010.364	803.500	3459.649	392.745	4441.989	654.147
310	0.334	0.0005	5	482.104	67.222	965.332	1522.310	3006.112	815.121	3459.925	340.444	4441.050	596.218
311	0.335	0.0005	5	482.729	62.529	981.874	1454.707	3012.037	825.796	3460.035	307.074	4437.061	552.775
312	0.336	0.0005	5	483.826	59.628	991.810	1397.192	3024.577	834.450	3460.087	287.048	4432.210	523.076
313	0.337	0.0006	5	485.274	58.203	995.995	1347.672	3040.613	838.606	3460.396	276.623	4427.876	504.772
314	0.338	0.0006	5	486.924	57.983	996.303	1299.732	3057.898	836.428	3461.321	273.363	4424.844	495.002
315	0.339	0.0006	5	488.611	58.720	994.778	1245.763	3075.078	826.822	3463.251	275.811	4423.554	490.973
316	0.340	0.0006	5	490.164	60.153	992.950	1180.064	3091.207	808.774	3466.668	283.241	4424.211	490.140
317	0.341	0.0006	5	491.414	61.991	991.498	1101.040	3105.094	781.127	3472.240	295.342	4426.771	490.204
318	0.342	0.0006	5	492.222	63.897	990.378	1011.507	3114.982	743.245	3480.868	311.712	4430.887	489.163
319	0.343	0.0006	5	492.514	65.526	989.274	917.233	3118.891	696.194	3493.541	331.176	4435.933	485.566
320	0.344	0.0006	5	492.308	66.585	987.986	824.848	3115.635	643.452	3510.775	351.383	4441.168	478.928
321	0.345	0.0008	5	491.655	66.910	986.448	733.013	3104.721	585.230	3533.978	371.216	4446.402	469.218
322	0.346	0.0008	5	490.861	66.489	985.189	661.387	3090.612	535.811	3557.360	386.217	4450.555	460.339
323	0.347	0.0008	5	490.083	65.607	984.401	603.889	3075.723	492.900	3580.628	399.021	4454.380	454.401
324	0.348	0.0008	5	489.467	64.569	984.345	560.691	3062.720	457.951	3601.998	411.215	4458.499	454.144
325	0.349	0.0008	5	489.090	63.639	985.180	530.289	3053.508	431.484	3620.155	424.133	4463.678	461.536
326	0.350	0.0008	5	488.953	62.950	986.939	509.703	3049.150	412.991	3634.368	438.425	4470.689	477.383
327	0.351	0.0008	5	488.997	62.478	989.537	494.822	3049.914	400.956	3644.520	453.892	4480.218	501.066
328	0.352	0.0008	5	489.136	62.072	992.786	481.136	3055.382	393.248	3650.939	469.566	4492.690	530.311
329	0.353	0.0008	5	489.286	61.529	996.399	464.877	3064.644	387.707	3654.220	484.190	4507.942	561.353
330	0.354	0.0008	5	489.398	60.683	1000.047	444.201	3076.602	382.623	3655.254	497.071	4524.928	590.124
331	0.355	0.0008	5	489.479	59.466	1003.439	419.644	3090.303	376.821	3655.462	508.774	4541.891	614.415
332	0.356	0.0008	5	489.585	57.949	1006.406	393.492	3105.053	369.421	3656.832	521.012	4557.167	635.518
333	0.357	0.0008	5	489.788	56.318	1008.918	368.522	3120.203	359.755	3661.509	535.650	4570.120	657.817
334	0.358	0.0008	5	490.159	54.822	1011.051	346.972	3134.826	347.731	3671.101	553.356	4581.476	686.553
335	0.359	0.0008	5	490.750	53.709	1012.927	330.106	3147.668	334.420	3685.877	572.771	4592.845	725.018
336	0.360	0.0008	5	491.597	53.186	1014.675	318.196	3157.550	322.203	3704.122	591.181	4605.586	771.843
337	0.361	0.0008	5	492.724	53.388	1016.375	310.644	3163.910	314.069	3722.253	606.772	4619.300	819.097
338	0.362	0.0008	5	494.131	54.368	1018.009	306.186	3167.006	312.593	3736.190	620.395	4630.797	853.435
339	0.363	0.0008	5	495.802	56.104	1019.450	303.216	3167.689	319.408	3743.010	634.312	4635.260	861.871
340	0.364	0.0008	5	497.695	58.513	1020.502	300.212	3166.948	335.404	3741.323	648.886	4629.708	838.596
341	0.365	0.0008	5	499.753	61.464	1020.972	296.080	3165.437	361.303	3730.589	660.394	4615.394	787.004
342	0.366	0.0008	5	501.905	64.787	1020.735	290.284	3163.030	398.074	3711.005	661.364	4596.651	716.567
343	0.367	0.0008	5	504.077	68.296	1019.785	282.788	3158.347	446.544	3684.649	643.243	4577.989	638.484
344	0.368	0.0008	5	506.205	71.822	1018.234	273.891	3148.405	505.190	3656.702	601.405	4562.246	562.428
345	0.369	0.0008	5	508.245	75.241	1016.296	264.075	3129.751	565.974	3634.222	541.141	4550.526	494.905
346	0.370	0.0008	5	510.181	78.493	1014.242	253.894	3102.382	614.693	3621.323	477.370	4542.934	439.180
347	0.371	0.0009	5	512.025	81.593	1012.366	243.935	3071.106	641.196	3616.845	423.461	4539.100	396.081
348	0.372	0.0009	5	513.810	84.626	1010.955	234.789	3041.347	645.084	3617.976	384.541	4538.323	364.954
349	0.373	0.0009	5	515.588	87.721	1010.257	227.013	3016.292	631.754	3622.974	360.633	4539.597	344.465
350	0.374	0.0009	5	517.405	91.018	1010.460	221.084	2997.047	608.021	3631.235	350.255	4541.732	333.207
351	0.375	0.0009	5	519.302	94.618	1011.679	217.375	2983.522	579.962	3642.733	351.788	4543.575	330.055
352	0.376	0.0009	5	521.296	98.545	1013.958	216.147	2975.077	552.134	3657.577	363.607	4544.222	334.260
353	0.377	0.0009	5	523.195	102.336	1016.946	217.352	2971.121	529.641	3673.879	381.591	4543.281	344.005
354	0.378	0.0009	5	525.365	106.585	1021.217	221.426	2970.165	509.951	3694.211	406.689	4540.287	360.569
355	0.379	0.0009	5	527.603	110.684	1026.506	228.675	2972.362	497.325	3715.238	433.578	4535.184	381.830
356	0.380	0.0009	5	529.902	114.364	1032.837	239.533	2977.972	493.779	3733.577	457.963	4528.177	404.977
357	0.381	0.0009	5	532.264	117.357	1040.291	254.427	2988.210	501.543	3744.664	476.717	4519.800	425.759
358	0.382	0.0009	5	534.884	119.488	1049.825	275.251	3007.098	525.061	3743.627	490.122	4510.119	440.594
359	0.383	0.0009	5	537.213	120.040	1059.893	297.226	3033.977	560.920	3728.819	497.547	4501.917	444.750
360	0.384	0.0009	5	539.265	118.971	1071.021	318.962	3071.844	608.908	3702.077	501.903	4495.450	441.245
361	0.385	0.0009	5	540.809	116.299	1082.607	336.356	3121.622	666.032	3666.159	503.351	4491.394	433.454
362	0.386	0.0009	5	541.711	112.401	1093.696	345.809	3183.585	730.039	3623.252	499.624	4489.828	424.699
363	0.387	0.0009	5	541.997	107.864	1103.296	345.982	3257.176	804.766	3574.402	482.265	4490.425	417.358
364	0.388	0.0009	5	541.819	103.253	1110.768	338.283	3333.868	906.175	3526.949	431.530	4492.851	412.999
365	0.389	0.0009	5	541.378	98.992	1115.999	325.867	3391.492	1018.437	3500.932	360.392	4497.084	412.682
366	0.390	0.0009	5	540.862	95.350	1119.277	312.140	3432.057	1101.609	3491.899	306.573	4503.466	417.032
367	0.391	0.0009	5	540.425	92.479	1121.071	299.787	3463.382	1151.804	3489.559	272.483	4512.521	426.016
368	0.392	0.0009	5	540.176	90.455	1121.852	290.543	3486.885	1173.667	3490.056	253.448	4524.619	438.628
369	0.393	0.0009	5	540.202	89.319	1122.032	285.410	3492.019	246.311	3501.715	1172.549	4539.602	452.767
370	0.394	0.0009	5	540.573	89.105	1121.958	284.964	3495.040	249.495	3506.696	1154.410	4556.547	465.655
371	0.395	0.0009	5	541.359	89.843	1121.926	289.545	3499.307	262.676	3501.054	1124.815	4573.848	474.791
372	0.396	0.0009	5	542.627	91.531	1122.188	299.247	3484.250	1086.948	3505.721	286.644	4589.704	478.851
373	0.397	0.0009	5	544.429	94.076	1122.951	313.701	3454.915	1040.186	3516.514	322.876	4602.738	477.937
374	0.398	0.001	5	546.784	97.247	1124.365	331.745	3409.192	982.648	3536.559	370.239	4612.373	473.125
375	0.399	0.001	5	549.644	100.648	1126.520	351.177	3343.176	923.639	3570.977	413.369	4618.761	465.794
376	0.400	0.001	5	552.896	103.776	1129.438	368.965	3266.083	877.842	3612.315	431.077	4622.412	457.125
377	0.401	0.001	5	556.392	106.139	1133.071	382.188	3191.654	837.570	3649.267	427.665	4623.774	447.879
378	0.402	0.001	5	560.006	107.379	1137.289	389.312	3126.287	793.926	3678.011	413.661	4623.065	438.348
379	0.403	0.001	5	563.651	107.321	1141.839	390.734	3072.266	745.612	3698.064	395.285	4620.449	428.371
380	0.404	0.002	5	567.262	105.943	1146.358	388.161	3029.167	694.300	3710.520	375.779	4616.323	417.450
381	0.405	0.002	5	570.769	103.352	1150.480	383.555	2995.158	642.016	3717.218	356.608	4611.360	405.068
382	0.406	0.002	5	574.110	99.772	1153.986	378.472	2968.484	590.726	3719.961	338.459	4606.273	391.114
383	0.407	0.002	5	577.242	95.527	1156.880	373.857	2948.135	542.416	3720.153	321.901	4601.537	376.081
384	0.408	0.002	5	580.148	90.983	1159.394	370.005	2933.724	498.923	3718.827	307.593	4597.260	360.955
385	0.409	0.002	5	582.816	86.477	1161.950	366.519	2925.120	461.680	3716.773	296.249	4593.261	346.937
386	0.410	0.002	5	585.228	82.270	1165.101	362.250	2922.183	431.568	3714.635	288.555	4589.271	335.186
387	0.411	0.002	5	587.356	78.546	1169.418	355.376	2924.675	408.965	3712.923	285.138	4585.126	326.661
388	0.412	0.002	5	589.168	75.430	1175.305	343.823	2932.281	393.925	3711.985	286.595	4580.817	322.081
389	0.413	0.002	5	590.656	73.033	1182.782	326.129	2944.651	386.406	3711.956	293.611	4576.361	321.968
390	0.414	0.002	5	591.841	71.451	1191.391	302.416	2961.451	386.543	3712.700	307.118	4571.602	326.770
391	0.415	0.002	5	592.773	70.728	1200.400	274.711	2982.470	394.879	3713.794	328.551	4566.081	337.030
392	0.416	0.002	5	593.514	70.794	1209.214	246.162	3007.860	412.477	3714.554	360.189	4559.081	353.584
393	0.417	0.002	5	594.129	71.425	1217.678	219.723	3038.590	440.705	3714.152	405.791	4549.789	377.809
394	0.418	0.002	5	594.710	72.299	1226.076	197.246	3077.262	480.235	3711.764	472.093	4537.346	411.955
395	0.419	0.002	5	595.393	73.134	1234.907	179.329	3129.427	527.433	3706.948	573.235	4520.423	459.638
396	0.420	0.002	5	596.357	73.815	1244.639	165.593	3203.903	560.592	3702.696	746.214	4495.619	526.252
397	0.421	0.002	5	597.775	74.403	1255.525	155.010	3289.680	514.899	3737.094	1081.680	4452.435	616.724
398	0.422	0.002	5	599.743	75.013	1267.480	146.205	3334.447	419.759	3929.489	1633.548	4359.505	696.354
399	0.423	0.002	5	602.238	75.685	1280.037	137.838	3352.014	356.055	4260.364	596.054	4329.270	2580.804
400	0.424	0.002	4	605.104	76.335	1292.444	129.069	3359.450	322.184	4228.403	480.978	--undefined--	--undefined--
401	0.425	0.002	4	608.083	76.830	1303.933	119.858	3360.665	310.909	4215.412	404.404	--undefined--	--undefined--
402	0.426	0.002	4	610.883	77.084	1314.026	110.776	3355.901	318.915	4207.478	353.052	--undefined--	--undefined--
403	0.427	0.002	4	613.262	77.127	1322.634	102.498	3343.904	345.115	4200.124	319.493	--undefined--	--undefined--
404	0.428	0.002	4	615.097	77.093	1329.952	95.389	3322.311	388.719	4191.220	299.102	--undefined--	--undefined--
405	0.429	0.002	4	616.402	77.188	1336.308	89.423	3287.954	446.404	4179.674	287.950	--undefined--	--undefined--
406	0.430	0.002	4	617.302	77.659	1342.060	84.308	3238.203	508.521	4165.302	282.198	--undefined--	--undefined--
407	0.431	0.002	4	617.979	78.763	1347.539	79.699	3174.329	557.851	4148.928	278.564	--undefined--	--undefined--
408	0.432	0.002	4	618.628	80.726	1352.998	75.346	3104.714	577.810	4132.166	275.284	--undefined--	--undefined--
409	0.433	0.002	4	619.432	83.702	1358.576	71.137	3041.608	565.699	4116.798	272.424	--undefined--	--undefined--
410	0.434	0.002	4	620.568	87.763	1364.320	67.091	2993.469	532.137	4104.247	271.246	--undefined--	--undefined--
411	0.435	0.002	4	622.208	92.914	1370.223	63.329	2962.764	489.240	4095.395	273.391	--undefined--	--undefined--
412	0.436	0.002	4	624.498	99.093	1376.262	60.043	2948.474	444.194	4090.574	280.472	--undefined--	--undefined--
413	0.437	0.002	4	627.487	106.128	1382.419	57.430	2947.976	399.645	4089.539	294.139	--undefined--	--undefined--
414	0.438	0.002	4	631.042	113.671	1388.671	55.611	2957.548	356.288	4091.427	316.682	--undefined--	--undefined--
415	0.439	0.002	4	634.783	121.193	1394.965	54.592	2972.887	315.371	4094.858	352.177	--undefined--	--undefined--
416	0.440	0.002	4	638.114	128.092	1401.182	54.287	2990.290	279.648	4098.261	408.034	--undefined--	--undefined--
417	0.441	0.002	4	640.341	133.850	1407.117	54.594	3007.702	252.332	4100.338	497.238	--undefined--	--undefined--
418	0.442	0.002	4	640.824	138.125	1412.488	55.443	3024.855	235.676	4100.822	643.706	--undefined--	--undefined--
419	0.443	0.002	4	639.123	140.745	1416.977	56.742	3042.911	230.521	4103.144	902.868	--undefined--	--undefined--
420	0.444	0.002	4	635.108	141.624	1420.291	58.240	3064.526	235.921	4137.240	1540.315	--undefined--	--undefined--
421	0.445	0.002	5	628.989	140.741	1422.244	59.381	3094.321	245.059	3307.448	2211.467	4728.326	1280.541
422	0.446	0.002	5	621.239	138.228	1422.893	59.309	2894.418	1626.401	3133.268	234.038	4766.719	983.587
423	0.447	0.002	5	612.441	134.524	1422.672	57.197	2689.597	1196.483	3164.285	189.803	4786.753	859.127
424	0.448	0.002	5	603.132	130.417	1422.330	52.837	2583.330	886.863	3179.250	142.387	4803.465	812.573
425	0.449	0.002	5	593.719	126.865	1422.588	46.939	2529.445	659.024	3185.365	107.035	4822.303	819.602
426	0.450	0.002	5	584.520	124.703	1423.793	40.687	2504.290	492.465	3188.106	83.350	4847.840	872.605
427	0.451	0.002	5	575.855	124.419	1425.904	35.054	2495.124	372.361	3189.970	68.116	4886.263	970.266
428	0.452	0.002	5	568.097	126.132	1428.695	30.517	2494.586	286.520	3191.949	58.608	4948.418	1114.061
429	0.453	0.002	5	561.591	129.715	1431.925	27.152	2498.276	225.147	3194.389	52.989	5057.957	1306.404
430	0.454	0.002	5	556.500	134.971	1435.402	24.820	2503.571	180.815	3197.377	50.141	5314.232	1548.752
431	0.455	0.002	4	552.700	141.745	1438.984	23.315	2508.934	148.249	3200.910	49.485	--undefined--	--undefined--
432	0.456	0.002	4	549.828	149.929	1442.548	22.430	2513.501	123.942	3204.988	50.904	--undefined--	--undefined--
433	0.457	0.002	4	547.461	159.379	1445.972	21.999	2516.846	105.695	3209.662	54.711	--undefined--	--undefined--
434	0.458	0.002	4	545.312	169.830	1449.136	21.914	2518.849	92.115	3215.085	61.652	--undefined--	--undefined--
435	0.459	0.002	4	543.378	180.892	1451.935	22.134	2519.587	82.216	3221.540	72.910	--undefined--	--undefined--
436	0.460	0.002	4	542.013	192.100	1454.301	22.681	2519.257	75.171	3229.470	90.092	--undefined--	--undefined--
437	0.461	0.002	4	541.910	202.925	1456.215	23.641	2518.122	70.244	3239.532	115.079	--undefined--	--undefined--
438	0.462	0.002	4	544.005	212.714	1457.710	25.165	2516.481	66.784	3252.699	149.537	--undefined--	--undefined--
439	0.463	0.002	4	549.272	220.580	1458.872	27.482	2514.638	64.256	3270.362	193.815	--undefined--	--undefined--
440	0.464	0.002	4	558.400	225.289	1459.830	30.916	2512.831	62.297	3294.216	245.286	--undefined--	--undefined--
441	0.465	0.002	4	571.328	225.347	1460.755	35.906	2511.175	60.855	3325.328	296.918	--undefined--	--undefined--
442	0.466	0.002	4	586.810	219.728	1461.846	43.105	2509.689	60.392	3362.089	337.860	--undefined--	--undefined--
443	0.467	0.002	4	602.422	209.292	1463.313	53.703	2508.467	62.042	3398.635	357.822	--undefined--	--undefined--
444	0.468	0.002	4	615.384	197.727	1465.437	70.226	2507.913	67.682	3427.135	354.027	--undefined--	--undefined--
445	0.469	0.001	4	623.899	190.406	1468.753	98.056	2508.959	80.210	3443.593	334.587	--undefined--	--undefined--
446	0.470	0.001	4	628.128	191.702	1474.447	147.720	2513.247	104.375	3450.160	314.224	--undefined--	--undefined--
447	0.471	0.001	4	630.359	203.196	1485.222	237.482	2523.287	148.217	3451.754	307.373	--undefined--	--undefined--
448	0.472	0.001	4	634.362	223.111	1507.624	393.275	2542.598	224.890	3452.965	326.639	--undefined--	--undefined--
449	0.473	0.001	4	643.118	245.361	1558.238	633.548	2577.262	353.441	3457.992	386.752	--undefined--	--undefined--
450	0.474	0.001	4	654.436	262.679	1669.942	896.875	2650.046	545.482	3475.347	507.485	--undefined--	--undefined--
451	0.475	0.001	4	661.482	277.983	1805.108	932.854	2809.328	651.626	3538.218	684.314	--undefined--	--undefined--
452	0.476	0.001	4	660.612	300.888	1816.483	791.260	2915.926	512.061	3656.407	763.804	--undefined--	--undefined--
453	0.477	0.001	4	651.419	334.005	1766.166	653.389	2947.616	391.930	3749.324	736.980	--undefined--	--undefined--
454	0.478	0.001	4	633.817	371.754	1712.260	525.382	2961.484	315.822	3811.662	695.493	--undefined--	--undefined--
455	0.479	0.001	4	609.369	402.473	1668.314	411.590	2971.083	264.992	3854.971	665.584	--undefined--	--undefined--
456	0.480	0.001	4	582.994	414.317	1633.890	316.376	2979.449	228.485	3885.730	653.434	--undefined--	--undefined--
457	0.481	0.001	4	560.434	404.630	1606.249	240.971	2987.314	200.051	3908.407	659.022	--undefined--	--undefined--
458	0.482	0.001	4	544.162	380.447	1583.521	183.801	2994.496	176.428	3926.535	678.140	--undefined--	--undefined--
459	0.483	0.001	4	533.240	350.610	1564.927	141.701	3000.313	156.631	3943.081	701.744	--undefined--	--undefined--
460	0.484	0.001	4	525.577	320.693	1550.129	111.232	3004.148	141.119	3961.338	714.117	--undefined--	--undefined--
461	0.485	0.001	4	519.339	292.680	1538.722	89.361	3005.945	130.851	3985.223	694.200	--undefined--	--undefined--
462	0.486	0.001	5	513.264	266.201	1530.122	73.632	3006.356	126.827	4015.025	625.421	5088.498	6697.683
463	0.487	0.001	5	506.804	240.438	1523.753	62.083	3006.396	130.099	3320.501	4063.056	4040.867	516.067
464	0.488	0.001	5	500.205	216.097	1519.285	53.183	3006.834	141.754	3014.424	2956.737	4054.132	404.494
465	0.489	0.001	5	494.002	195.254	1516.592	45.957	2889.334	2286.693	3007.869	163.000	4058.339	319.215
466	0.490	0.001	5	488.461	179.470	1515.476	40.013	2835.093	1834.051	3009.408	195.601	4059.495	262.933
467	0.491	0.001	5	483.561	168.892	1515.535	35.251	2810.289	1501.678	3011.824	242.037	4060.462	227.692
468	0.492	0.001	5	479.226	162.786	1516.271	31.584	2793.495	1237.653	3017.041	304.548	4061.839	205.655
469	0.493	0.001	5	475.437	160.281	1517.239	28.890	2770.900	1018.789	3029.857	380.165	4063.495	191.762
470	0.494	0.001	5	472.220	160.782	1518.117	27.047	2735.962	852.604	3053.430	447.761	4065.343	183.320
471	0.495	0.001	5	469.603	164.118	1518.713	25.972	2700.134	751.869	3075.847	487.364	4067.591	179.204
472	0.496	0.001	5	467.592	170.573	1518.950	25.630	2675.335	701.348	3086.486	510.586	4070.773	179.400
473	0.497	0.001	5	466.175	180.843	1518.842	26.025	2664.710	686.233	3084.978	531.476	4075.673	184.841
474	0.498	0.001	5	465.344	195.940	1518.473	27.183	2670.769	699.813	3072.814	558.971	4083.131	197.247
475	0.499	0.001	5	465.119	216.978	1517.978	29.126	2699.570	739.349	3048.327	600.569	4093.703	218.697
476	0.500	0.001	5	465.542	244.828	1517.512	31.846	2769.450	807.082	2996.820	660.070	4107.177	250.815
477	0.501	0.001	5	466.691	279.817	1517.220	35.290	2898.942	1078.016	2902.360	569.638	4122.109	293.882
478	0.502	0.001	5	468.718	321.712	1517.229	39.382	2895.334	458.123	2960.960	1435.258	4135.587	346.558
479	0.503	0.001	5	471.924	369.791	1517.649	44.045	2899.198	393.388	3041.111	1837.012	4143.178	406.756
480	0.504	0.001	5	476.864	422.368	1518.563	49.199	2906.374	349.896	3174.628	2368.460	4138.424	472.512
481	0.505	0.001	5	484.336	474.617	1519.966	54.730	2915.457	321.741	3451.868	3175.445	4111.680	537.601
482	0.506	0.001	5	494.764	513.672	1521.621	60.483	2927.181	310.541	4056.457	577.093	4279.369	4560.263
483	0.507	0.001	4	506.377	517.702	1522.958	66.387	2944.190	324.236	3987.456	575.822	--undefined--	--undefined--
484	0.508	0.001	4	515.327	479.332	1523.556	72.870	2969.586	372.120	3914.119	567.775	--undefined--	--undefined--
485	0.509	0.001	4	519.324	425.238	1524.123	81.838	3004.840	444.468	3832.617	553.351	--undefined--	--undefined--
486	0.510	0.001	4	516.725	382.495	1526.138	97.672	3052.641	496.466	3767.507	505.213	--undefined--	--undefined--
487	0.511	0.001	5	505.986	357.249	1530.881	127.584	3108.512	496.887	3739.998	455.911	5219.702	1607.758
488	0.512	0.001	5	488.353	348.276	1540.637	183.977	3153.725	467.817	3735.495	426.238	5157.616	1400.084
489	0.513	0.001	5	467.882	351.202	1560.740	284.987	3181.557	447.454	3738.292	415.313	5158.290	1321.086
490	0.514	0.001	5	448.633	352.962	1599.531	441.549	3198.269	452.943	3741.937	423.544	5208.206	1347.302
491	0.515	0.001	5	432.141	337.833	1664.264	631.993	3209.485	481.334	3745.789	446.394	5354.650	1456.473
492	0.516	0.001	4	417.646	301.898	1753.088	803.396	3216.385	521.242	3751.423	473.768	--undefined--	--undefined--
493	0.517	0.001	4	404.680	253.823	1853.649	917.493	3218.010	562.508	3760.976	497.691	--undefined--	--undefined--
494	0.518	0.001	4	393.407	203.943	1953.151	972.874	3213.871	598.577	3776.617	515.840	--undefined--	--undefined--
495	0.519	0.001	4	383.823	159.047	2042.584	983.870	3203.805	622.409	3800.080	527.627	--undefined--	--undefined--
496	0.520	0.001	4	375.742	122.418	2112.742	965.631	3186.919	624.353	3831.245	530.920	--undefined--	--undefined--
497	0.521	0.001	4	368.968	94.865	2154.295	934.389	3163.100	596.236	3866.898	524.686	--undefined--	--undefined--
498	0.522	0.0010	4	363.331	75.722	2163.788	902.970	3136.561	539.017	3902.165	512.857	--undefined--	--undefined--
499	0.523	0.0010	4	358.649	63.610	2147.616	875.105	3114.282	466.609	3932.980	500.988	--undefined--	--undefined--
500	0.524	0.0010	4	354.714	56.894	2118.563	852.045	3099.350	397.794	3956.409	489.583	--undefined--	--undefined--
501	0.525	0.0005	4	351.293	53.982	2088.167	837.931	3089.606	343.795	3970.664	473.424	--undefined--	--undefined--
502	0.526	0.0005	4	348.157	53.520	2063.383	836.649	3081.568	306.326	3976.150	447.484	--undefined--	--undefined--
503	0.527	0.0006	4	345.099	54.474	2047.833	850.150	3073.053	282.843	3975.241	412.222	--undefined--	--undefined--
504	0.528	0.0006	4	341.956	56.085	2043.525	879.609	3063.365	270.837	3970.483	372.969	--undefined--	--undefined--
505	0.529	0.0006	4	338.640	57.786	2052.151	926.311	3052.641	269.450	3963.564	336.064	--undefined--	--undefined--
506	0.530	0.0008	4	335.189	59.120	2076.251	991.497	3041.253	279.739	3955.573	306.279	--undefined--	--undefined--
507	0.531	0.0008	4	331.800	59.738	2120.487	1074.871	3029.378	304.901	3947.552	286.364	--undefined--	--undefined--
508	0.532	0.0008	4	328.801	59.477	2193.561	1170.005	3016.675	351.276	3940.799	277.484	--undefined--	--undefined--
509	0.533	0.0008	4	326.545	58.509	2310.724	1249.442	3002.144	431.650	3936.980	279.602	--undefined--	--undefined--
510	0.534	0.0008	4	325.254	57.349	2485.707	1219.439	2985.364	578.511	3938.033	291.404	--undefined--	--undefined--
511	0.535	0.0008	4	324.909	56.640	2633.951	879.832	3016.295	891.853	3945.636	309.542	--undefined--	--undefined--
512	0.536	0.0008	4	325.268	56.822	2606.535	610.293	3166.192	1031.033	3959.984	327.510	--undefined--	--undefined--
513	0.537	0.0008	4	325.957	57.940	2581.955	502.111	3240.146	1034.378	3978.385	336.853	--undefined--	--undefined--
514	0.538	0.0008	4	326.587	59.720	2571.592	463.132	3244.077	1051.970	3996.073	333.262	--undefined--	--undefined--
515	0.539	0.0008	4	326.882	61.866	2575.043	477.552	3190.703	1103.499	4009.611	321.139	--undefined--	--undefined--
516	0.540	0.0008	4	326.749	64.238	2597.115	548.868	3077.193	1180.023	4018.707	310.275	--undefined--	--undefined--
517	0.541	0.0008	4	326.225	66.689	2682.694	689.918	2826.454	1271.775	4026.060	310.392	--undefined--	--undefined--
518	0.542	0.0008	5	325.412	68.917	2393.936	1486.963	2804.196	552.245	4037.387	329.795	4441.095	2786.551
519	0.543	0.0008	5	324.505	70.693	2135.965	1319.926	2831.054	442.601	4063.330	374.352	4127.313	1657.552
520	0.544	0.0008	5	323.783	72.247	2022.475	1111.184	2843.905	382.341	3986.347	1153.315	4124.169	414.997
521	0.545	0.0008	5	323.472	74.135	1978.709	953.356	2855.076	350.596	3892.461	974.477	4186.251	366.411
522	0.546	0.0008	5	323.621	76.652	1968.345	842.180	2868.506	335.670	3858.040	927.347	4214.275	309.283
523	0.547	0.0008	5	324.110	79.670	1970.917	762.422	2884.623	328.674	3853.822	920.720	4227.145	272.887
524	0.548	0.0008	5	324.749	82.999	1974.278	703.219	2901.856	323.696	3864.201	918.475	4233.782	252.253
525	0.549	0.0008	5	325.352	86.689	1972.167	659.079	2918.022	318.322	3880.263	900.980	4238.277	242.577
526	0.550	0.0008	5	325.776	91.020	1962.420	626.928	2931.437	312.653	3896.140	861.777	4243.201	240.681
527	0.551	0.0008	5	325.934	96.311	1945.394	604.009	2941.243	307.755	3908.247	804.125	4250.466	243.775
528	0.552	0.0008	5	325.778	102.760	1922.937	587.556	2947.196	304.734	3914.913	736.521	4261.297	248.473
529	0.553	0.0008	5	325.296	110.371	1897.727	575.399	2949.350	304.455	3916.240	669.087	4275.647	250.790
530	0.554	0.0008	5	324.503	118.978	1872.634	566.543	2947.844	307.452	3913.951	610.254	4291.853	247.810
531	0.555	0.0008	5	323.449	128.272	1850.075	561.186	2942.842	313.727	3910.531	564.320	4307.437	239.397
532	0.556	0.0008	5	322.215	137.800	1831.583	560.197	2934.540	322.464	3908.159	531.534	4320.377	227.681
533	0.557	0.0008	5	320.911	146.950	1817.738	564.521	2923.138	331.824	3908.316	509.585	4329.661	215.326
534	0.558	0.0008	5	319.662	154.966	1808.368	574.904	2908.745	339.025	3911.803	494.780	4335.199	204.386
535	0.559	0.0008	5	318.582	161.094	1802.872	591.992	2891.312	340.871	3918.758	482.850	4337.562	196.025
536	0.560	0.0008	5	317.752	164.783	1800.509	616.557	2870.799	334.713	3928.669	469.924	4337.692	190.701
537	0.561	0.0008	5	317.191	165.848	1800.625	649.532	2847.581	319.517	3940.543	453.633	4336.645	188.485
538	0.562	0.0008	5	316.860	164.458	1802.763	691.785	2822.729	296.419	3953.258	433.674	4335.383	189.324
539	0.563	0.0008	5	316.683	161.002	1806.699	743.917	2797.807	268.326	3965.903	411.324	4334.666	193.163
540	0.564	0.0008	5	316.574	155.937	1812.392	806.344	2774.293	238.757	3977.880	388.322	4335.027	199.923
541	0.565	0.0008	5	316.457	149.683	1819.848	879.553	2753.092	210.610	3988.817	366.003	4336.790	209.375
542	0.566	0.0008	5	316.273	142.580	1828.931	964.209	2734.458	185.544	3998.446	345.046	4340.084	221.014
543	0.567	0.0008	5	315.987	134.896	1839.174	1060.996	2718.194	164.061	4006.591	325.617	4344.863	234.054
544	0.568	0.0008	5	315.580	126.868	1849.687	1170.383	2703.915	145.945	4013.191	307.593	4350.958	247.556
545	0.569	0.0008	5	315.060	118.746	1859.173	1292.544	2691.207	130.720	4018.291	290.753	4358.153	260.624
546	0.570	0.0008	5	314.463	110.795	1866.099	1427.695	2679.694	117.960	4021.948	274.955	4366.200	272.565
547	0.571	0.0008	5	313.851	103.281	1868.989	1577.141	2669.038	107.408	4024.111	260.374	4374.738	283.002
548	0.572	0.0008	5	313.312	96.435	1866.742	1745.235	2658.938	98.951	4024.530	247.708	4383.111	291.971
549	0.573	0.0008	5	312.944	90.429	1858.674	1941.985	2649.166	92.538	4022.755	238.234	4390.212	300.013
550	0.574	0.0008	5	312.839	85.371	1843.900	2185.499	2639.636	88.094	4018.220	233.654	4394.482	308.102
551	0.575	0.0008	5	313.062	81.300	1819.564	2503.970	2630.473	85.501	4010.382	235.831	4394.090	317.152
552	0.576	0.0008	5	313.649	78.215	1776.918	2939.485	2622.036	84.652	3998.833	246.604	4387.216	327.019
553	0.577	0.0008	5	314.602	76.114	1690.474	3562.952	2614.865	85.534	3983.248	267.728	4372.483	335.219
554	0.578	0.0008	5	315.923	75.045	1467.731	4538.984	2609.569	88.249	3963.003	300.660	4349.821	336.152
555	0.579	0.0008	4	317.629	75.117	2606.716	92.903	3936.601	345.130	4321.892	322.824	--undefined--	--undefined--
556	0.580	0.0008	4	319.766	76.458	2606.776	99.458	3902.199	395.798	4294.379	293.108	--undefined--	--undefined--
557	0.581	0.0008	4	322.396	79.152	2610.075	107.638	3860.662	442.225	4272.194	254.525	--undefined--	--undefined--
558	0.582	0.0008	4	325.581	83.211	2616.708	116.951	3816.629	477.320	4255.807	217.507	--undefined--	--undefined--
559	0.583	0.0008	4	329.359	88.575	2626.378	126.794	3774.780	501.473	4243.221	187.729	--undefined--	--undefined--
560	0.584	0.0008	4	333.722	95.104	2638.269	136.644	3737.897	517.941	4232.670	166.660	--undefined--	--undefined--
561	0.585	0.0008	4	338.577	102.543	2651.118	146.311	3708.003	529.194	4223.250	154.170	--undefined--	--undefined--
562	0.586	0.001	4	343.727	110.489	2663.609	156.111	3687.452	536.433	4214.756	149.889	--undefined--	--undefined--
563	0.587	0.001	4	348.922	118.408	2674.909	166.762	3678.523	539.824	4207.526	153.549	--undefined--	--undefined--
564	0.588	0.001	4	353.994	125.728	2684.993	179.058	3681.831	538.317	4202.381	164.716	--undefined--	--undefined--
565	0.589	0.001	5	358.952	131.941	945.508	4413.237	2694.589	193.633	3694.891	530.388	4200.433	182.199
566	0.590	0.001	5	363.916	136.584	1437.355	3279.599	2704.976	211.117	3712.498	517.004	4202.490	203.619
567	0.591	0.001	5	368.945	139.120	1621.173	2538.042	2717.972	232.493	3729.538	504.043	4208.220	226.058
568	0.592	0.001	5	373.971	138.928	1722.629	1970.998	2736.194	258.782	3743.994	500.217	4215.977	248.065
569	0.593	0.001	5	378.968	135.675	1786.374	1495.866	2762.945	288.543	3757.495	512.899	4223.731	271.224
570	0.594	0.001	5	384.248	129.925	1823.989	1093.155	2799.680	314.401	3774.053	546.895	4229.905	299.828
571	0.595	0.001	5	390.621	123.177	1843.008	775.617	2841.849	328.077	3799.272	605.916	4233.091	339.456
572	0.596	0.001	5	399.242	116.749	1852.603	549.218	2881.564	331.422	3840.223	692.410	4231.038	393.745
573	0.597	0.001	5	411.166	110.657	1858.823	400.254	2913.607	333.454	3902.413	806.146	4220.228	455.451
574	0.598	0.001	5	426.661	103.834	1864.200	306.839	2936.153	343.064	3977.901	950.819	4202.466	493.383
575	0.599	0.001	5	444.685	95.308	1869.715	249.297	2949.720	366.434	4032.107	1109.532	4199.201	488.882
576	0.600	0.001	5	463.172	85.063	1875.746	213.679	2955.887	406.411	4048.533	1224.276	4215.965	476.453
577	0.601	0.001	5	480.030	74.003	1882.476	191.473	2956.323	463.688	4036.516	1279.190	4240.402	468.659
578	0.602	0.001	5	492.842	64.237	1889.437	178.939	2953.235	530.761	4008.972	1288.463	4263.517	464.495
579	0.603	0.001	5	503.840	54.638	1898.458	171.200	2948.230	620.902	3966.845	1273.105	4287.343	461.607
580	0.604	0.001	5	511.878	46.631	1909.510	168.286	2945.130	727.786	3916.643	1250.215	4308.151	460.327
581	0.605	0.001	5	517.529	40.232	1923.198	168.907	2949.635	850.344	3860.391	1236.020	4325.136	462.235
582	0.606	0.001	5	521.392	35.238	1939.881	171.673	2970.255	986.347	3797.299	1243.591	4337.986	469.957
583	0.607	0.001	5	523.976	31.380	1959.401	175.061	3019.785	1130.904	3722.130	1285.291	4346.690	485.696
584	0.608	0.001	5	525.663	28.411	1980.889	177.631	3122.694	1266.694	3617.239	1382.444	4351.109	509.868
585	0.609	0.001	5	526.724	26.149	2002.740	178.329	3314.577	1159.178	3452.550	1768.008	4350.647	540.513
586	0.610	0.001	5	527.339	24.478	2022.868	176.694	3333.352	934.920	3493.390	2303.191	4344.477	573.946
587	0.611	0.001	5	527.620	23.336	2039.242	172.841	3329.827	836.097	3587.323	2716.390	4332.322	606.401
588	0.612	0.001	5	527.635	22.690	2050.561	167.227	3322.156	788.650	3705.886	3035.499	4315.007	635.574
589	0.613	0.001	5	527.423	22.526	2056.695	160.395	3311.251	771.716	3828.814	3236.435	4294.270	660.810
590	0.614	0.001	5	526.997	22.846	2058.560	152.922	3296.927	773.546	3934.690	3311.339	4272.402	682.302
591	0.615	0.001	5	526.359	23.665	2057.565	145.484	3279.852	786.032	4005.969	3274.503	4252.325	701.091
592	0.616	0.001	5	525.403	25.164	2054.735	138.289	3260.749	806.937	4028.078	3124.790	4236.737	722.110
593	0.617	0.001	5	524.272	27.153	2051.483	133.226	3246.844	833.533	3988.098	2893.703	4232.812	747.307
594	0.618	0.001	5	522.890	29.818	2048.065	130.029	3241.458	872.608	3890.983	2582.655	4244.477	781.068
595	0.619	0.001	5	521.281	33.275	2044.645	128.790	3251.762	933.095	3742.965	2224.350	4277.578	811.275
596	0.620	0.001	5	519.531	37.670	2041.234	129.373	3295.845	1027.908	3550.636	1870.642	4325.054	808.424
597	0.621	0.001	5	517.827	43.133	2037.769	131.509	3283.771	1683.854	3434.785	1024.328	4366.320	773.274
598	0.622	0.001	5	516.486	49.700	2034.149	134.916	3132.439	1745.309	3489.928	833.231	4393.656	732.775
599	0.623	0.001	5	515.948	57.185	2030.243	139.368	3054.074	1795.781	3501.490	704.157	4409.575	703.695
600	0.624	0.001	5	516.666	65.072	2025.909	144.706	3011.875	1846.911	3501.098	616.455	4417.991	691.593
601	0.625	0.001	5	518.915	72.574	2021.025	150.817	2992.838	1900.780	3496.198	556.593	4422.165	695.543
602	0.626	0.001	5	522.622	78.938	2015.525	157.619	2987.102	1952.294	3489.960	515.889	4424.622	709.707
603	0.627	0.001	5	527.381	83.822	2009.432	165.100	2984.185	1994.709	3484.266	487.707	4427.161	724.033
604	0.628	0.001	5	532.670	87.442	2002.853	173.340	2973.650	2023.686	3480.400	466.864	4430.598	727.021
605	0.629	0.001	5	538.084	90.387	1995.929	182.469	2948.466	2038.427	3479.216	449.797	4434.614	711.377
606	0.630	0.001	5	543.439	93.320	1988.762	192.585	2907.397	2040.084	3481.157	434.447	4438.276	678.300
607	0.631	0.001	5	548.741	96.778	1981.366	203.682	2853.839	2030.452	3486.181	419.620	4440.966	635.695
608	0.632	0.001	5	554.118	101.112	1973.658	215.601	2793.043	2012.449	3493.644	404.441	4442.810	592.761
609	0.633	0.001	5	559.762	106.520	1965.513	227.986	2730.377	1990.891	3502.357	388.414	4444.493	556.340
610	0.634	0.001	5	565.887	113.078	1956.800	240.295	2670.698	1971.977	3510.944	371.677	4446.954	530.286
611	0.635	0.001	5	572.688	120.713	1947.377	251.908	2617.982	1961.195	3518.343	354.853	4451.216	516.070
612	0.636	0.001	5	580.289	129.121	1937.033	262.358	2574.972	1960.199	3524.155	338.519	4458.294	513.144
613	0.637	0.001	5	588.662	137.647	1925.416	271.573	2542.955	1963.778	3528.702	322.783	4469.016	518.766
614	0.638	0.001	5	597.539	145.260	1912.039	279.927	2521.805	1959.006	3532.841	307.342	4483.673	527.894
615	0.639	0.001	5	606.397	150.738	1896.384	287.890	2510.382	1929.222	3537.634	291.928	4501.682	534.279
616	0.640	0.001	5	614.546	153.069	1878.094	295.442	2507.071	1862.596	3543.984	276.627	4521.622	533.007
617	0.641	0.001	5	621.340	151.865	1857.246	301.652	2509.914	1759.608	3552.292	261.761	4541.831	522.716
618	0.642	0.001	5	626.372	147.510	1834.633	304.861	2516.345	1633.308	3562.278	247.611	4561.060	505.487
619	0.643	0.001	5	629.570	140.966	1811.820	303.551	2523.334	1502.786	3573.024	234.415	4578.665	484.936
620	0.644	0.001	5	631.157	133.398	1790.707	297.317	2528.187	1385.412	3583.261	222.572	4594.416	464.441
621	0.645	0.001	5	631.527	125.832	1772.765	287.030	2529.339	1292.516	3591.741	212.704	4608.290	446.260
622	0.646	0.0008	5	631.102	118.980	1758.542	274.182	2526.526	1229.122	3597.500	205.429	4620.398	431.270
623	0.647	0.0008	5	630.238	113.217	1747.667	260.173	2520.409	1195.665	3599.945	201.068	4630.981	418.986
624	0.648	0.0008	5	629.171	108.628	1739.188	246.008	2512.068	1189.776	3598.834	199.468	4640.422	407.834
625	0.649	0.0008	5	628.009	105.094	1731.982	232.311	2502.671	1207.443	3594.267	199.999	4649.197	395.752
626	0.650	0.0008	5	626.760	102.369	1725.062	219.447	2493.358	1243.627	3586.726	201.670	4657.754	381.116
627	0.651	0.0008	5	625.370	100.152	1717.746	207.639	2485.267	1292.587	3577.100	203.350	4666.334	363.630
628	0.652	0.0008	5	623.767	98.145	1709.687	197.043	2479.497	1348.096	3566.611	204.002	4674.874	344.577
629	0.653	0.0008	5	621.899	96.098	1700.829	187.778	2476.875	1403.769	3556.573	202.866	4683.100	326.189
630	0.654	0.0008	5	619.768	93.859	1691.358	179.933	2477.609	1453.945	3548.051	199.569	4690.771	310.648
631	0.655	0.0008	5	617.446	91.405	1681.665	173.542	2481.101	1495.242	3541.577	194.188	4697.916	299.465
632	0.656	0.0008	5	615.071	88.855	1672.296	168.588	2486.132	1527.945	3537.111	187.250	4704.960	293.448
633	0.657	0.0008	5	612.817	86.427	1663.864	165.032	2491.318	1555.909	3534.243	179.621	4712.741	292.940
634	0.658	0.0008	5	610.859	84.360	1656.916	162.859	2495.576	1584.676	3532.488	172.273	4722.423	297.895
635	0.659	0.0008	5	609.332	82.831	1651.786	162.085	2498.338	1618.719	3531.498	166.054	4735.218	307.548
636	0.660	0.0008	5	608.325	81.910	1648.504	162.764	2499.493	1659.233	3531.111	161.587	4751.807	319.716
637	0.661	0.0008	5	607.881	81.576	1646.809	164.991	2499.320	1703.940	3531.277	159.358	4771.528	330.433
638	0.662	0.0008	5	608.030	81.782	1646.295	168.907	2498.778	1749.830	3531.965	159.980	4791.930	335.172
639	0.663	0.0008	5	608.812	82.533	1646.584	174.670	2499.852	1796.828	3533.098	164.352	4809.622	331.785
640	0.664	0.0008	5	610.270	83.861	1647.397	182.430	2504.905	1848.010	3534.522	173.432	4822.125	322.252
641	0.665	0.0008	5	612.417	85.744	1648.493	192.330	2515.051	1906.067	3535.975	187.729	4828.935	310.939
642	0.666	0.0008	5	615.200	88.054	1649.594	204.464	2529.250	1971.015	3537.060	206.912	4831.009	301.605
643	0.667	0.0008	5	618.499	90.575	1650.367	218.750	2545.002	2041.131	3537.283	229.775	4829.717	296.160
644	0.668	0.0008	5	622.138	93.050	1650.433	234.823	2559.750	2114.000	3536.149	254.436	4826.265	295.056
645	0.669	0.0008	5	625.906	95.227	1649.366	252.078	2571.824	2185.156	3533.337	278.656	4821.646	297.987
646	0.670	0.0008	5	629.589	96.892	1646.719	269.876	2580.513	2245.315	3528.913	300.220	4816.826	304.327
647	0.671	0.0008	5	633.005	97.901	1642.088	287.809	2585.622	2279.336	3523.486	317.392	4812.894	313.275
648	0.672	0.0008	5	636.041	98.211	1635.190	305.807	2587.085	2270.360	3518.142	329.367	4811.030	323.808
649	0.673	0.0008	5	638.673	97.898	1625.917	323.915	2585.033	2209.398	3514.066	336.435	4812.213	334.463
650	0.674	0.0008	5	640.962	97.155	1614.360	341.882	2580.195	2103.584	3512.008	339.734	4816.763	343.137
651	0.675	0.0008	5	643.019	96.263	1600.830	358.947	2574.154	1974.229	3511.963	340.916	4823.984	347.344
652	0.676	0.0008	5	644.953	95.534	1585.827	374.079	2569.127	1845.465	3513.347	341.953	4832.335	345.310
653	0.677	0.0008	5	646.816	95.245	1569.824	386.466	2567.306	1732.908	3515.504	344.762	4840.213	337.279
654	0.678	0.0008	5	648.576	95.569	1552.936	395.751	2570.092	1638.775	3518.125	350.468	4846.794	325.548
655	0.679	0.0008	5	650.112	96.558	1534.770	401.829	2577.589	1553.837	3521.341	358.774	4852.197	313.013
656	0.680	0.0008	5	651.253	98.175	1514.733	404.470	2588.528	1464.536	3525.560	368.033	4857.052	301.748
657	0.681	0.0008	5	651.846	100.372	1492.663	403.164	2600.752	1362.473	3531.142	375.984	4862.005	292.751
658	0.682	0.0008	5	651.812	103.152	1469.306	397.454	2612.296	1250.752	3537.997	380.911	4867.490	286.517
659	0.683	0.0008	5	651.174	106.609	1446.198	387.578	2622.457	1142.045	3545.460	382.843	4873.771	283.603
660	0.684	0.0007	5	650.034	110.929	1424.982	374.775	2632.030	1050.829	3552.693	384.030	4881.112	284.756
661	0.685	0.0007	5	648.525	116.348	1406.759	360.849	2642.705	987.280	3559.201	388.078	4889.899	290.668
662	0.686	0.0007	5	646.769	123.091	1391.850	347.441	2656.383	956.032	3564.877	398.436	4900.571	301.613
663	0.687	0.0007	5	644.851	131.267	1379.917	335.572	2674.798	957.584	3569.616	417.263	4913.383	317.158
664	0.688	0.0007	5	642.810	140.811	1370.213	325.638	2699.343	989.725	3572.943	444.906	4928.153	335.983
665	0.689	0.0007	5	640.649	151.469	1361.802	317.679	2730.807	1047.988	3573.946	479.699	4944.164	355.866
666	0.690	0.0007	5	638.350	162.858	1353.719	311.638	2768.931	1125.371	3571.656	517.942	4960.278	373.877
667	0.691	0.0007	5	635.889	174.536	1345.097	307.444	2812.014	1212.339	3565.721	554.454	4975.204	386.994
668	0.692	0.0007	5	633.252	186.054	1335.297	304.872	2857.404	1298.696	3556.823	584.184	4987.795	393.191
669	0.693	0.0007	5	630.451	196.963	1324.048	303.361	2903.534	1377.968	3546.016	604.282	4997.294	392.545
670	0.694	0.0007	5	627.517	206.828	1311.495	301.974	2952.240	1451.879	3533.303	614.465	5003.427	387.396
671	0.695	0.0007	5	624.456	215.227	1298.110	299.596	3008.810	1530.788	3517.100	614.741	5006.331	381.280
672	0.696	0.0007	5	621.202	221.808	1284.466	295.268	3079.094	1629.441	3495.719	602.349	5006.379	377.560
673	0.697	0.0007	5	617.587	226.387	1271.010	288.491	3164.917	1759.382	3470.591	571.906	5004.020	378.616
674	0.698	0.0007	5	613.372	229.073	1257.947	279.416	3261.470	1916.060	3447.571	523.776	4999.695	385.649
675	0.699	0.0007	5	608.302	230.322	1245.264	268.811	3361.470	2072.598	3431.226	469.142	4993.883	398.719
676	0.700	0.0007	5	602.164	230.853	1232.853	257.815	3421.193	419.318	3457.431	2193.712	4987.228	416.795
677	0.701	0.0007	5	594.827	231.444	1220.618	247.555	3415.262	379.173	3539.364	2251.264	4980.664	437.879
678	0.702	0.0007	5	586.276	232.721	1208.510	238.846	3411.695	349.098	3597.093	2234.080	4975.377	459.359
679	0.703	0.0007	5	576.630	235.028	1196.522	232.066	3409.530	327.673	3625.988	2151.252	4972.495	478.623
680	0.704	0.0007	5	566.157	238.443	1184.648	227.203	3408.273	313.154	3629.221	2025.442	4972.648	493.705
681	0.705	0.0007	5	555.225	242.873	1172.875	223.939	3407.589	304.109	3614.641	1881.369	4975.711	503.658
682	0.706	0.0007	5	544.225	248.155	1161.177	221.726	3407.137	299.527	3590.392	1737.760	4980.877	508.473
683	0.707	0.0007	5	533.476	254.083	1149.542	219.833	3406.529	298.702	3562.605	1605.162	4986.973	508.688
684	0.708	0.0007	5	523.173	260.392	1137.991	217.446	3405.332	301.079	3535.186	1487.365	4992.832	505.016
685	0.709	0.0007	5	513.411	266.749	1126.578	213.843	3403.091	306.143	3510.419	1383.966	4997.586	498.175
686	0.710	0.0005	5	504.241	272.840	1115.357	208.589	3399.376	313.305	3489.506	1292.825	5000.826	488.895
687	0.711	0.0005	5	495.721	278.519	1104.334	201.647	3393.877	321.770	3472.789	1211.895	5002.593	477.988
688	0.712	0.0004	5	487.933	283.918	1093.434	193.340	3386.580	330.456	3459.727	1140.183	5003.237	466.362
689	0.713	0.0004	5	480.972	289.424	1082.528	184.187	3377.979	338.146	3448.832	1077.688	5003.246	454.934
690	0.714	0.0004	5	474.934	295.497	1071.492	174.704	3369.237	343.994	3437.758	1024.412	5003.131	444.491
691	0.715	0.0004	5	469.919	302.420	1060.295	165.260	3362.090	348.182	3423.713	979.022	5003.474	435.583
692	0.716	0.0004	5	466.013	310.109	1049.088	156.039	3358.525	352.052	3404.104	938.256	5005.079	428.508
693	0.717	0.0004	5	463.275	318.125	1038.240	147.115	3360.537	357.149	3376.943	898.024	5009.113	423.352
694	0.718	0.0004	5	461.715	325.889	1028.300	138.599	3340.884	856.433	3369.994	362.934	5016.962	419.955
695	0.719	0.0004	5	461.282	332.987	1019.854	130.746	3296.499	817.238	3387.004	364.026	5029.555	417.691
696	0.720	0.0004	5	461.847	339.313	1013.321	123.952	3249.301	784.271	3406.743	355.859	5046.349	415.399
697	0.721	0.0004	5	463.188	344.993	1008.802	118.657	3206.287	751.491	3423.450	344.581	5064.878	412.116
698	0.722	0.0004	5	464.984	350.243	1006.065	115.272	3171.909	711.134	3435.093	339.717	5081.672	408.324
699	0.723	0.0004	5	466.871	355.227	1004.667	114.165	3148.969	660.893	3441.769	347.908	5093.914	406.133
700	0.724	0.0003	5	468.523	359.839	1004.131	115.658	3137.958	603.054	3444.546	372.819	5100.334	407.911
701	0.725	0.0003	5	469.765	363.410	1004.074	120.019	3136.215	541.479	3445.401	415.400	5101.004	414.962
702	0.726	0.0003	5	470.642	364.592	1004.256	127.483	3138.814	480.513	3447.173	473.066	5096.751	427.499
703	0.727	0.0003	5	471.444	361.657	1004.557	138.329	3141.237	426.248	3452.285	538.856	5088.720	445.524
704	0.728	0.0002	5	472.641	353.123	1004.903	152.961	3142.021	384.713	3460.975	604.942	5078.155	469.698
705	0.729	0.0002	5	474.479	340.015	1005.164	169.960	3142.041	360.024	3471.139	662.130	5067.399	498.430
706	0.730	0.0002	5	477.595	320.401	1005.192	193.028	3142.390	346.664	3484.492	721.771	5055.433	539.782
707	0.731	0.0002	5	481.784	297.266	1004.588	220.335	3143.847	346.183	3500.744	778.429	5044.518	593.704
708	0.732	0.0002	5	486.594	273.151	1002.845	250.219	3146.799	356.467	3520.997	830.820	5035.840	661.103
709	0.733	0.0002	5	491.744	248.290	999.009	281.790	3151.581	376.079	3548.781	878.624	5029.875	747.127
710	0.734	0.0002	5	495.633	228.161	993.314	304.912	3156.535	395.932	3579.934	908.347	5027.297	830.205
711	0.735	0.0002	5	498.190	210.915	985.490	318.238	3160.627	410.250	3616.188	920.210	5025.367	907.087
712	0.736	0.0002	5	499.162	196.355	975.894	319.858	3162.726	413.004	3655.794	912.268	5020.639	967.375
713	0.737	0.0002	5	498.580	184.177	965.227	310.845	3162.903	402.657	3694.922	885.352	5010.110	1003.026
714	0.738	0.0002	5	496.719	174.215	954.398	294.690	3162.435	382.608	3728.620	843.678	4993.520	1010.627
715	0.739	0.0002	5	494.021	166.547	944.290	275.844	3162.857	358.420	3753.142	794.293	4974.251	992.913
716	0.740	0.0002	5	490.980	161.437	935.510	258.214	3165.091	334.868	3767.216	744.572	4957.543	957.604
717	0.741	0.0002	5	488.019	159.141	928.199	244.235	3169.187	314.674	3771.406	699.616	4947.303	913.120
718	0.742	0.0001	5	485.408	159.680	922.011	234.685	3174.535	298.598	3766.993	661.257	4944.202	864.873
719	0.743	0.0001	5	483.246	162.747	916.291	229.118	3180.265	286.106	3755.678	628.784	4946.156	815.470
720	0.744	0.0001	5	481.522	167.803	910.372	226.560	3185.638	276.109	3739.868	600.787	4950.171	767.325
721	0.745	0.0001	5	480.177	174.240	903.813	226.078	3190.288	267.516	3722.618	576.985	4953.778	724.050
722	0.746	0.0001	5	479.130	181.515	896.494	227.066	3194.231	259.501	3707.015	558.888	4955.318	689.727
723	0.747	0.0001	5	478.290	189.219	888.561	229.321	3197.651	251.553	3695.569	549.146	4953.577	667.687
724	0.748	0.0001	5	477.577	197.078	880.322	233.018	3200.574	243.456	3690.039	550.396	4947.387	659.982
725	0.749	0.0001	5	476.965	204.895	872.140	238.648	3202.576	235.291	3691.586	564.366	4935.411	667.411
726	0.750	0.0001	5	476.528	212.453	864.393	246.898	3202.703	227.472	3700.896	591.371	4916.092	689.508
727	0.751	0.0001	5	476.423	219.372	857.487	258.477	3199.676	220.678	3718.147	630.193	4887.854	724.243
728	0.752	0.0001	5	476.798	224.973	851.909	273.863	3192.386	215.489	3742.947	678.406	4849.795	767.831
729	0.753	0.0001	5	477.654	228.328	848.262	293.073	3180.530	211.840	3774.528	733.073	4802.962	815.766
730	0.754	0.0001	5	478.802	228.673	847.133	315.684	3165.189	208.857	3812.015	791.119	4751.409	865.671
731	0.755	0.0001	5	479.958	226.015	848.784	341.137	3148.907	205.558	3853.706	848.534	4701.428	918.954
732	0.756	0.0001	5	480.887	221.216	852.864	368.869	3134.794	201.941	3894.271	899.847	4659.092	975.631
733	0.757	0.0001	5	481.417	215.393	858.445	397.849	3124.998	199.123	3922.411	941.783	4628.638	1024.206
734	0.758	0.0001	5	481.391	209.385	864.350	426.082	3119.773	198.307	3925.446	976.936	4611.672	1042.856
735	0.759	0.0001	5	480.699	203.712	869.521	450.886	3117.801	199.912	3899.380	1005.704	4606.148	1021.031
736	0.760	0.0001	5	479.314	198.741	873.256	469.766	3117.258	203.556	3852.426	1020.966	4606.784	971.116
737	0.761	0.0001	5	477.280	194.747	875.271	481.166	3116.700	208.426	3798.104	1018.788	4607.657	912.029
738	0.762	0.0001	5	474.673	191.844	875.628	484.747	3115.418	213.609	3746.717	1003.332	4605.138	855.213
739	0.763	0.0001	5	471.572	189.912	874.605	481.245	3113.377	218.348	3702.620	981.326	4598.490	804.496
740	0.764	0.0001	5	468.047	188.592	872.572	472.075	3110.958	222.286	3665.595	956.929	4588.994	759.704
741	0.765	0.0001	5	464.161	187.362	869.893	458.900	3108.655	225.560	3633.102	930.247	4579.000	719.338
742	0.766	0.0001	5	459.979	185.677	866.873	443.317	3106.800	228.672	3602.322	898.449	4571.027	682.128
743	0.767	0.0001	5	455.575	183.098	863.735	426.676	3105.380	232.165	3571.684	858.267	4566.904	647.634
744	0.768	0.0001	5	451.037	179.369	860.657	410.024	3104.009	236.287	3541.461	808.539	4567.231	616.112
745	0.769	0.0001	5	446.460	174.429	857.839	394.145	3102.080	240.771	3513.267	751.487	4571.360	588.099
746	0.770	0.0001	5	441.950	168.396	855.553	379.639	3099.076	244.848	3488.890	692.151	4577.835	564.132
747	0.771	0.0001	5	437.626	161.500	854.174	366.982	3094.903	247.592	3469.236	636.509	4584.964	544.680
748	0.772	0.0001	5	433.609	154.011	854.146	356.511	3089.989	248.515	3453.958	589.389	4591.325	530.099
749	0.773	0.0001	5	430.010	146.168	855.889	348.327	3085.042	247.971	3441.795	553.148	4596.089	520.512
750	0.774	0.0001	5	426.897	138.148	859.670	342.191	3080.681	246.942	3431.258	527.599	4599.130	515.685
751	0.775	0.0001	5	424.282	130.088	865.492	337.513	3077.235	246.458	3421.185	510.821	4600.948	515.000
752	0.776	0.0001	5	422.126	122.115	873.059	333.482	3074.769	247.151	3411.031	500.211	4602.423	517.578
753	0.777	0.0001	5	420.367	114.381	881.864	329.326	3073.187	249.138	3400.909	493.444	4604.483	522.444
754	0.778	0.0001	5	418.942	107.046	891.340	324.580	3072.347	252.119	3391.406	489.130	4607.783	528.606
755	0.779	0.0001	5	417.790	100.257	901.006	319.269	3072.141	255.565	3383.242	487.019	4612.491	535.047
756	0.780	0.0001	5	416.848	94.114	910.556	313.915	3072.529	258.915	3376.909	487.713	4618.211	540.755
757	0.781	0.0001	5	416.051	88.659	919.880	309.332	3073.537	261.708	3372.471	492.123	4624.062	544.888
758	0.782	0.0001	5	415.335	83.866	929.046	306.260	3075.228	263.595	3369.559	501.031	4628.856	546.975
759	0.783	0.0001	5	414.647	79.657	938.263	304.925	3077.684	264.255	3367.541	514.939	4631.344	546.960
760	0.784	0.0001	5	413.935	75.923	947.803	304.671	3080.944	263.272	3365.801	534.121	4630.434	545.018
761	0.785	0.0001	5	413.153	72.575	957.896	303.810	3084.890	260.117	3364.100	558.609	4625.368	541.278
762	0.786	0.0001	5	412.255	69.581	968.576	299.919	3089.100	254.312	3362.918	587.947	4615.843	535.733
763	0.787	0.0001	5	411.221	67.002	979.554	290.725	3092.846	245.793	3363.567	620.854	4602.069	528.447
764	0.788	0.0001	5	410.069	64.970	990.232	275.270	3095.378	235.187	3367.863	655.261	4584.716	519.964
765	0.789	0.0001	5	408.855	63.643	999.923	254.519	3096.329	223.628	3377.461	688.957	4564.742	511.450
766	0.790	0.0001	5	407.636	63.134	1008.131	230.812	3095.899	212.277	3393.135	720.265	4543.131	504.259
767	0.791	0.0001	5	406.446	63.461	1014.694	206.651	3094.700	201.995	3414.298	748.151	4520.710	499.152
768	0.792	0.0001	5	405.282	64.536	1019.737	183.781	3093.479	193.262	3439.018	772.081	4498.113	495.864
769	0.793	0.0001	5	404.123	66.182	1023.541	163.021	3092.865	186.134	3464.747	792.166	4475.870	493.505
770	0.794	0.0001	5	402.935	68.186	1026.421	144.570	3093.210	180.249	3489.463	809.422	4454.468	491.523
771	0.795	0.0001	5	401.688	70.362	1028.672	128.401	3094.523	174.975	3512.577	825.697	4434.321	490.509
772	0.796	0.0001	5	400.354	72.625	1030.538	114.520	3096.484	169.689	3535.069	843.272	4415.676	492.298
773	0.797	0.0001	5	398.921	75.037	1032.221	103.054	3098.559	164.095	3558.850	864.482	4398.509	499.380
774	0.798	0.0001	5	397.397	77.831	1033.896	94.217	3100.188	158.424	3585.787	891.653	4382.390	513.944
775	0.799	0.0001	5	395.824	81.377	1035.740	88.258	3100.975	153.403	3616.878	927.496	4366.297	536.805
776	0.800	0.0001	5	394.265	86.137	1037.953	85.455	3100.790	150.017	3651.853	975.987	4348.472	566.155
777	0.801	0.0001	5	392.799	92.629	1040.786	86.187	3099.773	149.257	3688.835	1043.589	4326.676	595.977
778	0.802	0.0001	5	391.516	101.407	1044.588	91.090	3098.264	152.020	3722.831	1139.928	4299.798	614.486
779	0.803	0.0001	5	390.525	113.039	1049.864	101.249	3096.747	159.208	3741.578	1272.709	4271.904	607.115
780	0.804	0.0001	5	389.950	127.966	1057.366	118.355	3095.881	171.925	3724.489	1428.140	4253.198	572.397
781	0.805	0.0001	5	389.894	146.062	1068.185	144.551	3096.788	191.541	3655.512	1561.983	4248.827	527.510
782	0.806	0.0001	5	390.368	165.870	1083.767	181.308	3101.618	219.158	3533.421	1625.756	4254.644	486.048
783	0.807	0.0001	5	391.149	184.063	1105.656	226.345	3114.073	253.508	3373.384	1591.726	4264.193	452.285
784	0.808	0.0001	5	391.683	196.773	1134.362	269.414	3138.221	285.755	3204.219	1472.557	4272.489	428.343
785	0.809	0.0001	5	391.423	203.526	1167.025	294.093	3058.606	1323.849	3171.376	296.880	4277.155	416.285
786	0.810	0.0001	5	390.524	209.531	1196.808	291.801	2961.080	1198.591	3199.532	282.701	4278.008	416.637
787	0.811	0.0001	5	389.696	221.787	1217.622	270.668	2911.352	1113.748	3215.411	262.745	4276.103	428.047
788	0.812	0.0001	5	389.265	243.910	1228.541	244.207	2895.197	1070.791	3221.175	248.997	4273.341	448.166
789	0.813	0.0001	5	388.836	274.968	1232.335	219.900	2901.457	1063.319	3219.795	243.401	4272.057	474.833
790	0.814	0.0001	5	387.673	310.793	1232.268	199.306	2924.699	1081.150	3212.979	244.503	4274.264	507.457
791	0.815	0.0001	5	385.217	345.573	1230.726	181.695	2963.857	1115.419	3201.193	249.997	4281.280	547.765
792	0.816	0.0001	5	381.420	373.493	1229.188	166.136	3021.105	1162.272	3183.931	256.293	4293.879	599.945
793	0.817	0.0001	5	376.683	390.534	1228.522	152.104	3100.485	1225.867	3160.928	256.454	4312.485	671.176
794	0.818	0.0001	5	371.500	395.904	1229.269	139.478	3135.219	241.797	3205.926	1316.440	4337.052	773.987
795	0.819	0.0001	5	366.112	392.281	1231.868	128.385	3112.921	211.816	3345.730	1436.268	4366.369	934.153
796	0.820	0.0001	5	360.444	384.630	1236.805	119.054	3097.465	174.914	3551.537	1550.817	4396.899	1226.114
797	0.821	0.0001	5	354.275	378.355	1244.586	111.668	3088.584	139.393	3839.980	1365.429	4517.513	2023.180
798	0.822	0.0001	4	347.353	377.780	1255.516	106.276	3084.517	110.480	3924.045	1029.746	--undefined--	--undefined--
799	0.823	0.0001	4	339.392	385.436	1269.415	102.913	3083.219	90.786	3967.132	864.611	--undefined--	--undefined--
800	0.824	0.0001	4	330.048	402.384	1285.593	101.929	3082.928	81.132	4003.300	768.783	--undefined--	--undefined--
801	0.825	0.0001	4	318.989	429.629	1303.255	104.145	3082.456	81.581	4030.185	716.267	--undefined--	--undefined--
802	0.826	0.0002	4	306.088	468.618	1321.953	110.360	3081.239	92.410	4046.010	695.363	--undefined--	--undefined--
803	0.827	0.0002	4	291.974	517.723	1341.519	120.432	3079.192	114.614	4051.692	696.519	--undefined--	--undefined--
804	0.828	0.0002	4	279.554	567.632	1361.656	132.676	3076.260	149.836	4048.413	713.705	--undefined--	--undefined--
805	0.829	0.0002	4	274.651	603.594	1381.655	144.247	3071.462	199.462	4034.725	745.311	--undefined--	--undefined--
806	0.830	0.0003	4	281.382	616.689	1400.502	152.701	3061.431	261.746	4004.683	787.218	--undefined--	--undefined--
807	0.831	0.0005	4	296.884	612.255	1417.373	157.662	3040.091	324.970	3951.009	814.047	--undefined--	--undefined--
808	0.832	0.0005	4	314.682	605.155	1432.227	161.212	3005.132	362.657	3887.065	779.563	--undefined--	--undefined--
809	0.833	0.0005	4	330.077	610.754	1445.984	167.047	2967.217	357.476	3844.829	699.034	--undefined--	--undefined--
810	0.834	0.0005	5	340.988	640.365	1460.287	179.169	2937.995	326.565	3826.117	626.825	5382.427	1066.559
811	0.835	0.0005	5	347.121	699.261	1477.230	200.386	2918.497	295.038	3818.666	581.404	5267.182	937.407
812	0.836	0.0005	5	349.982	784.659	1499.019	230.221	2905.405	275.060	3815.957	559.745	5236.889	882.855
813	0.837	0.0005	5	351.939	888.100	1526.417	262.308	2896.222	268.907	3816.392	553.212	5238.725	882.661
814	0.838	0.0007	5	347.502	1014.289	1554.963	285.709	2889.738	276.335	3819.862	555.059	5270.990	929.342
815	0.839	0.0007	5	301.560	1209.575	1574.295	294.262	2885.343	300.333	3825.833	567.807	5381.662	1036.522
816	0.840	0.0007	3	1576.906	290.452	2883.431	349.648	3834.221	604.047	--undefined--	--undefined--	--undefined--	--undefined--
817	0.841	0.0007	3	1564.986	276.044	2886.987	440.918	3849.158	684.369	--undefined--	--undefined--	--undefined--	--undefined--
818	0.842	0.0007	4	1547.590	250.236	2907.080	617.916	3168.336	3556.352	3898.838	839.497	--undefined--	--undefined--
819	0.843	0.0007	4	1533.625	217.900	2697.805	1355.167	3136.958	897.626	4043.593	900.675	--undefined--	--undefined--
820	0.844	0.0007	4	1526.407	187.717	2482.301	1015.353	3255.858	577.435	4137.613	788.626	--undefined--	--undefined--
821	0.845	0.0007	4	1525.081	164.779	2423.316	847.103	3278.657	413.661	4184.165	690.684	--undefined--	--undefined--
822	0.846	0.0007	4	1527.922	150.138	2406.723	762.256	3282.585	316.490	4211.912	624.811	--undefined--	--undefined--
823	0.847	0.0007	4	1533.570	143.110	2410.005	733.265	3278.375	255.147	4232.006	587.410	--undefined--	--undefined--
824	0.848	0.0007	4	1541.062	142.595	2425.116	749.509	3269.555	215.366	4249.657	574.714	--undefined--	--undefined--
825	0.849	0.0007	4	1549.604	147.346	2448.681	808.519	3257.845	189.166	4267.231	584.429	--undefined--	--undefined--
826	0.850	0.0007	4	1558.437	155.698	2480.119	911.722	3244.434	171.728	4285.055	615.483	--undefined--	--undefined--
827	0.851	0.0007	4	1566.903	165.283	2522.487	1060.716	3230.424	160.199	4301.991	667.776	--undefined--	--undefined--
828	0.852	0.0007	4	1574.517	173.372	2584.481	1253.324	3216.801	153.297	4316.316	743.136	--undefined--	--undefined--
829	0.853	0.0007	4	1580.877	178.046	2680.982	1479.934	3204.106	150.820	4326.679	848.781	--undefined--	--undefined--
830	0.854	0.0007	4	1585.774	179.112	2832.317	1719.128	3192.369	152.718	4333.177	1005.161	--undefined--	--undefined--
831	0.855	0.0007	4	1589.491	177.613	3070.917	1916.172	3181.516	158.521	4341.090	1273.068	--undefined--	--undefined--
832	0.856	0.0007	4	1592.647	174.625	3171.821	167.594	3430.393	1803.116	4432.109	1923.621	--undefined--	--undefined--
833	0.857	0.0007	4	1595.737	170.673	3164.055	179.765	3562.753	1257.241	5174.435	1377.882	--undefined--	--undefined--
834	0.858	0.0007	4	1598.929	165.911	3159.325	195.731	3562.341	965.866	5062.727	957.538	--undefined--	--undefined--
835	0.859	0.0007	4	1602.227	160.587	3158.796	216.832	3548.287	792.663	5033.873	784.548	--undefined--	--undefined--
836	0.860	0.0007	4	1605.692	155.381	3163.514	244.225	3529.490	678.163	5021.593	690.111	--undefined--	--undefined--
837	0.861	0.0007	4	1609.520	151.473	3174.389	277.681	3508.772	599.828	5017.984	643.561	--undefined--	--undefined--
838	0.862	0.0007	4	1613.993	150.393	3192.197	314.068	3488.739	547.759	5021.752	633.173	--undefined--	--undefined--
839	0.863	0.0007	4	1619.404	153.759	3217.214	345.754	3472.033	519.663	5033.456	650.206	--undefined--	--undefined--
840	0.864	0.0007	4	1626.040	163.035	3247.452	360.395	3461.645	518.888	5053.790	682.596	--undefined--	--undefined--
841	0.865	0.0007	4	1634.195	179.280	3274.920	348.331	3463.360	546.748	5081.865	712.712	--undefined--	--undefined--
842	0.866	0.0007	4	1644.190	202.786	3289.875	321.115	3482.218	585.628	5113.454	722.501	--undefined--	--undefined--
843	0.867	0.0007	4	1656.371	232.466	3293.688	297.332	3512.304	614.794	5142.055	705.360	--undefined--	--undefined--
844	0.868	0.0007	4	1671.102	265.199	3291.399	280.987	3546.244	630.531	5163.688	670.258	--undefined--	--undefined--
845	0.869	0.0007	4	1688.745	295.759	3285.627	270.126	3581.306	634.194	5178.888	631.656	--undefined--	--undefined--
846	0.870	0.0007	4	1709.465	317.903	3277.429	261.970	3617.659	625.354	5190.174	600.637	--undefined--	--undefined--
847	0.871	0.0007	4	1732.640	326.479	3267.510	253.444	3656.552	602.338	5199.855	583.832	--undefined--	--undefined--
848	0.872	0.0007	4	1756.253	319.765	3257.061	241.714	3698.540	564.915	5209.536	585.247	--undefined--	--undefined--
849	0.873	0.0007	4	1777.343	300.553	3247.749	225.609	3741.754	516.573	5220.263	607.887	--undefined--	--undefined--
850	0.874	0.0007	4	1793.495	274.569	3240.718	206.404	3782.288	464.583	5232.713	654.511	--undefined--	--undefined--
851	0.875	0.0007	4	1803.791	247.456	3235.846	186.950	3816.883	416.929	5247.169	727.304	--undefined--	--undefined--
852	0.876	0.0007	4	1808.560	223.021	3232.193	170.292	3844.650	378.667	5262.595	826.140	--undefined--	--undefined--
853	0.877	0.0007	4	1808.637	203.229	3228.828	158.793	3866.393	351.129	5273.478	944.559	--undefined--	--undefined--
854	0.878	0.0007	4	1804.859	188.821	3225.168	153.950	3883.001	333.424	5266.375	1061.775	--undefined--	--undefined--
855	0.879	0.0007	4	1797.879	179.825	3220.908	156.758	3894.401	323.969	5235.602	1147.292	--undefined--	--undefined--
856	0.880	0.0007	4	1788.188	175.867	3215.904	168.159	3899.431	320.992	5196.516	1232.628	--undefined--	--undefined--
857	0.881	0.0007	4	1776.243	176.377	3210.135	189.101	3896.555	321.996	5118.899	1342.793	--undefined--	--undefined--
858	0.882	0.0007	4	1762.657	180.783	3203.733	220.040	3885.206	323.113	5024.257	1372.336	--undefined--	--undefined--
859	0.883	0.0007	4	1748.299	188.671	3197.029	260.238	3867.107	320.013	4956.960	1350.626	--undefined--	--undefined--
860	0.884	0.0007	4	1734.300	199.824	3190.603	307.738	3846.116	310.587	4928.647	1317.635	--undefined--	--undefined--
861	0.885	0.0007	4	1722.055	214.115	3185.170	360.359	3826.198	296.328	4944.537	1290.301	--undefined--	--undefined--
862	0.886	0.0007	4	1713.314	231.337	3181.298	416.633	3809.696	280.495	5016.156	1244.222	--undefined--	--undefined--
863	0.887	0.0007	4	1710.264	250.981	3179.389	475.508	3797.481	265.883	5114.912	1002.149	--undefined--	--undefined--
864	0.888	0.0007	4	1715.312	271.721	3180.268	535.207	3790.025	254.561	5098.161	762.023	--undefined--	--undefined--
865	0.889	0.0007	4	1730.078	290.501	3186.146	592.785	3788.179	248.839	5072.296	625.007	--undefined--	--undefined--
866	0.890	0.0007	4	1753.305	302.426	3200.890	645.441	3793.383	252.136	5051.065	534.505	--undefined--	--undefined--
867	0.891	0.0007	4	1779.110	304.000	3228.847	692.683	3807.687	269.169	5037.387	473.796	--undefined--	--undefined--
868	0.892	0.0007	4	1799.155	297.917	3273.817	735.287	3834.378	305.238	5033.956	433.622	--undefined--	--undefined--
869	0.893	0.0007	4	1808.274	291.464	3338.349	763.229	3880.014	361.362	5041.672	404.684	--undefined--	--undefined--
870	0.894	0.0007	5	1807.123	289.855	1971.477	6338.504	3410.383	744.729	3952.998	413.696	5057.821	378.368
871	0.895	0.0007	5	1800.025	293.650	2049.999	3836.087	3456.998	693.367	4038.167	412.966	5077.286	351.615
872	0.896	0.0007	5	1791.864	300.532	1969.848	3042.381	3476.794	665.609	4104.129	371.641	5096.042	327.019
873	0.897	0.0007	5	1786.230	307.130	1885.069	2708.643	3483.701	670.545	4146.716	328.826	5112.455	308.170
874	0.898	0.0007	5	1784.580	310.037	1790.566	2626.305	3483.095	695.129	4172.998	298.591	5126.382	296.803
875	0.899	0.0007	5	1671.526	2733.266	1786.170	307.341	3475.846	722.226	4188.748	282.003	5138.212	292.698
876	0.900	0.0007	5	1503.983	3008.951	1789.102	300.119	3462.695	736.919	4197.477	277.275	5148.388	294.714
877	0.901	0.0007	5	1238.976	3449.635	1791.768	291.671	3446.045	734.025	4200.938	282.881	5157.237	301.915
878	0.902	0.0007	5	700.666	4077.666	1793.304	285.193	3428.706	720.057	4199.564	298.100	5164.949	314.157
879	0.903	0.0007	4	1793.191	282.333	3411.766	707.083	4192.799	322.847	5171.637	332.129	--undefined--	--undefined--
880	0.904	0.0007	4	1790.868	282.877	3393.870	706.285	4179.123	357.222	5177.413	357.347	--undefined--	--undefined--
881	0.905	0.0007	4	1785.740	284.766	3371.227	725.825	4155.803	400.272	5182.447	392.270	--undefined--	--undefined--
882	0.906	0.0007	4	1777.622	284.333	3337.059	769.251	4119.112	446.515	5187.074	440.140	--undefined--	--undefined--
883	0.907	0.0007	4	1767.573	277.637	3282.248	826.349	4067.892	480.214	5191.933	503.522	--undefined--	--undefined--
884	0.908	0.0007	4	1758.386	263.292	3206.977	862.309	4012.410	482.374	5198.101	579.418	--undefined--	--undefined--
885	0.909	0.0007	4	1753.646	244.578	3134.085	853.953	3970.502	459.994	5206.824	648.048	--undefined--	--undefined--
886	0.910	0.0007	4	1755.959	227.836	3085.352	822.609	3949.003	436.665	5217.392	669.612	--undefined--	--undefined--
887	0.911	0.0007	4	1766.333	218.751	3065.468	790.979	3945.252	422.182	5225.730	631.575	--undefined--	--undefined--
888	0.912	0.0007	4	1784.861	220.226	3070.027	757.104	3953.459	413.478	5231.969	568.897	--undefined--	--undefined--
889	0.913	0.0007	4	1811.461	231.982	3087.021	707.568	3965.927	408.089	5239.666	511.637	--undefined--	--undefined--
890	0.914	0.0007	5	741.776	3193.914	1845.811	250.472	3102.199	647.189	3977.099	411.596	5250.792	472.076
891	0.915	0.0007	5	1050.503	2321.344	1886.313	269.574	3111.856	594.634	3986.508	431.590	5266.604	453.955
892	0.916	0.0007	5	1124.646	1851.564	1929.168	283.821	3119.430	559.413	3996.935	471.612	5289.578	458.120
893	0.917	0.0007	5	1145.140	1568.480	1969.304	292.316	3127.475	541.798	4011.972	531.007	5325.874	485.618
894	0.918	0.0007	5	1148.767	1393.737	2002.262	299.081	3136.014	540.852	4034.569	607.203	5398.204	540.266
895	0.919	0.0007	4	1150.238	1296.990	2024.981	311.063	3144.090	559.332	4066.775	699.130	--undefined--	--undefined--
896	0.920	0.0007	4	1159.931	1273.663	2035.621	336.725	3151.867	604.376	4112.080	809.640	--undefined--	--undefined--
897	0.921	0.0007	4	1190.876	1339.062	2032.713	386.050	3162.455	685.680	4182.223	938.646	--undefined--	--undefined--
898	0.922	0.0007	4	1276.615	1542.531	2012.261	473.434	3185.316	812.046	4299.924	1030.939	--undefined--	--undefined--
899	0.923	0.0007	4	1643.826	1968.764	1950.303	625.014	3245.069	965.613	4416.761	972.424	--undefined--	--undefined--
900	0.924	0.0007	4	1784.119	629.820	2282.400	1391.501	3340.910	1024.995	4478.573	875.711	--undefined--	--undefined--
901	0.925	0.0007	4	1711.270	481.479	2413.733	1068.056	3402.998	983.040	4517.083	802.706	--undefined--	--undefined--
902	0.926	0.0007	4	1677.369	380.492	2457.188	922.660	3430.927	912.225	4550.998	745.693	--undefined--	--undefined--
903	0.927	0.00008	4	1656.454	310.929	2479.113	844.837	3441.975	825.352	4586.084	694.475	--undefined--	--undefined--
904	0.928	0.00005	4	1641.682	261.870	2492.224	795.655	3448.019	729.957	4621.835	644.918	--undefined--	--undefined--
905	0.929	0.00004	4	1630.517	227.463	2500.847	758.523	3456.149	637.594	4655.268	597.933	--undefined--	--undefined--
906	0.930	0.00004	4	1621.899	204.543	2507.048	728.000	3469.067	557.317	4683.727	556.670	--undefined--	--undefined--
907	0.931	0.00004	4	1615.380	191.364	2511.761	704.422	3486.755	492.604	4706.254	524.252	--undefined--	--undefined--
908	0.932	0.00004	4	1610.770	187.026	2515.441	690.156	3507.961	442.934	4723.469	502.631	--undefined--	--undefined--
909	0.933	0.00004	4	1607.888	191.365	2518.605	687.786	3530.711	406.425	4736.633	492.471	--undefined--	--undefined--
910	0.934	0.00002	4	1606.373	205.090	2522.342	699.607	3552.375	381.834	4746.750	493.682	--undefined--	--undefined--
911	0.935	0.00002	4	1605.496	229.949	2528.801	727.179	3569.932	369.572	4754.018	505.948	--undefined--	--undefined--
912	0.936	0.00001	4	1603.927	268.715	2541.064	770.001	3580.588	371.464	4757.567	528.484	--undefined--	--undefined--
913	0.937	0.00001	4	1599.437	324.775	2561.704	823.347	3582.611	389.097	4755.515	558.318	--undefined--	--undefined--
914	0.938	0.00001	4	1589.031	401.167	2590.508	877.514	3576.111	421.346	4745.572	588.365	--undefined--	--undefined--
915	0.939	0.00001	4	1570.323	499.335	2623.451	922.583	3563.500	463.173	4726.316	609.641	--undefined--	--undefined--
916	0.940	0.0001	4	1544.054	619.896	2654.213	958.407	3548.816	508.272	4698.366	619.058	--undefined--	--undefined--
917	0.941	0.0002	4	1515.341	768.095	2676.453	1000.649	3535.049	554.038	4663.774	623.856	--undefined--	--undefined--
918	0.942	0.0002	4	1491.751	959.756	2684.041	1076.739	3521.124	602.948	4623.980	635.851	--undefined--	--undefined--
919	0.943	0.0002	4	1482.120	1219.833	2667.771	1221.431	3501.702	658.445	4578.381	662.957	--undefined--	--undefined--
920	0.944	0.0002	4	1505.912	1575.620	2603.049	1486.583	3469.923	718.044	4524.286	704.541	--undefined--	--undefined--
921	0.945	0.0002	4	1670.492	2093.086	2358.617	1978.087	3422.653	766.427	4458.471	749.044	--undefined--	--undefined--
922	0.946	0.0002	4	1629.599	5106.296	1952.193	1411.872	3369.578	782.101	4381.966	772.973	--undefined--	--undefined--
923	0.947	0.0002	3	1887.316	1072.519	3329.950	774.367	4309.830	758.862	--undefined--	--undefined--	--undefined--	--undefined--
924	0.948	0.0002	3	1854.140	823.532	3312.607	781.927	4261.717	735.171	--undefined--	--undefined--	--undefined--	--undefined--
925	0.949	0.0002	3	1852.537	631.576	3322.630	832.984	4243.751	746.238	--undefined--	--undefined--	--undefined--	--undefined--
926	0.950	0.0002	3	1875.567	499.855	3358.133	867.974	4255.744	780.924	--undefined--	--undefined--	--undefined--	--undefined--
927	0.951	0.0002	4	596.633	2834.648	1906.644	414.412	3348.349	765.023	4263.160	776.468	--undefined--	--undefined--
928	0.952	0.0004	4	1120.026	1745.677	1932.567	356.046	3292.699	608.320	4219.391	758.547	--undefined--	--undefined--
929	0.953	0.0005	4	1239.309	1304.646	1948.949	317.629	3248.394	502.582	4125.256	737.671	--undefined--	--undefined--
930	0.954	0.0005	4	1298.839	1089.658	1958.150	295.167	3221.639	448.584	4034.726	690.514	--undefined--	--undefined--
931	0.955	0.0005	4	1341.212	977.841	1963.437	284.919	3208.395	421.001	3980.766	651.588	--undefined--	--undefined--
932	0.956	0.0006	4	1377.482	919.091	1966.523	283.525	3204.590	407.244	3954.751	637.777	--undefined--	--undefined--
933	0.957	0.0006	4	1410.332	886.607	1968.274	287.613	3206.129	401.127	3943.822	642.494	--undefined--	--undefined--
934	0.958	0.0006	4	1440.210	867.995	1968.997	294.969	3210.526	399.404	3941.268	658.529	--undefined--	--undefined--
935	0.959	0.0006	4	1466.588	857.140	1968.801	303.908	3216.145	400.081	3943.694	679.789	--undefined--	--undefined--
936	0.960	0.0006	4	1488.127	851.250	1967.686	312.772	3221.601	402.100	3948.526	700.551	--undefined--	--undefined--
937	0.961	0.0006	4	1503.171	851.524	1965.367	320.104	3225.935	405.645	3953.450	717.499	--undefined--	--undefined--
938	0.962	0.0006	4	1509.986	863.548	1961.129	324.775	3228.730	412.042	3956.700	730.942	--undefined--	--undefined--
939	0.963	0.0006	4	1506.092	896.816	1953.900	325.762	3229.831	423.492	3957.012	743.626	--undefined--	--undefined--
940	0.964	0.0006	4	1486.819	964.372	1942.578	322.062	3228.932	443.067	3953.212	758.774	--undefined--	--undefined--
941	0.965	0.0008	4	1443.444	1081.986	1926.401	313.470	3225.190	474.909	3944.066	778.042	--undefined--	--undefined--
942	0.966	0.0008	4	1360.990	1266.372	1904.594	302.056	3216.542	524.505	3928.916	798.687	--undefined--	--undefined--
943	0.967	0.0008	4	1209.615	1538.829	1874.770	291.362	3197.570	598.941	3909.476	809.532	--undefined--	--undefined--
944	0.968	0.0008	4	850.241	1920.604	1832.390	280.236	3153.326	701.892	3893.386	788.025	--undefined--	--undefined--
945	0.969	0.0008	4	483.852	1070.819	1776.877	256.970	3057.545	794.900	3897.744	713.826	--undefined--	--undefined--
946	0.970	0.0008	4	482.996	732.836	1721.258	214.422	2926.551	778.724	3931.682	605.218	--undefined--	--undefined--
947	0.971	0.0008	4	475.293	557.440	1681.453	168.567	2824.790	680.688	3976.210	502.081	--undefined--	--undefined--
948	0.972	0.0008	4	468.347	461.855	1660.084	134.966	2763.131	592.597	4011.590	428.934	--undefined--	--undefined--
949	0.973	0.0008	5	463.714	413.760	1651.232	114.559	2729.458	537.557	4034.249	387.806	4951.644	2054.271
950	0.974	0.002	5	461.327	390.745	1648.766	102.713	2713.173	507.964	4048.334	368.168	4767.144	1849.277
951	0.975	0.002	5	460.672	378.652	1648.899	95.645	2706.694	492.984	4057.755	359.637	4659.225	1707.337
952	0.976	0.002	5	461.192	370.461	1649.711	91.371	2705.557	485.419	4064.501	355.770	4588.847	1602.225
953	0.977	0.002	5	462.383	363.885	1650.266	89.085	2707.507	481.492	4069.264	352.860	4544.999	1524.978
954	0.978	0.002	5	463.847	359.070	1650.058	88.565	2711.444	479.418	4072.168	348.608	4524.157	1474.236
955	0.979	0.002	5	465.308	356.958	1648.760	89.821	2716.667	478.343	4073.251	341.943	4524.355	1449.395
956	0.980	0.002	5	466.599	358.346	1646.123	92.893	2722.437	477.740	4072.689	333.369	4542.302	1445.899
957	0.981	0.002	5	467.618	363.525	1641.995	97.736	2727.876	477.172	4070.758	324.772	4572.040	1453.875
958	0.982	0.002	5	468.302	372.347	1636.384	104.155	2732.168	476.307	4067.697	318.520	4604.985	1460.439
959	0.983	0.002	5	468.629	384.504	1629.548	111.782	2734.867	475.089	4063.681	316.635	4631.487	1454.047
960	0.984	0.002	5	468.643	399.790	1622.034	120.095	2736.093	473.953	4058.901	320.519	4643.661	1428.358
961	0.985	0.002	5	468.493	418.217	1614.629	128.453	2736.511	473.952	4053.657	331.092	4638.066	1383.655
962	0.986	0.002	5	468.474	439.971	1608.252	136.090	2737.140	476.696	4048.412	348.978	4616.306	1325.668
963	0.987	0.002	5	469.061	465.314	1603.816	142.098	2739.138	484.104	4043.904	374.493	4583.369	1263.462
964	0.988	0.002	5	470.895	494.646	1602.035	145.542	2743.644	497.921	4041.376	407.288	4545.272	1208.055
965	0.989	0.002	5	474.683	528.745	1603.123	145.839	2751.630	518.875	4042.894	445.449	4507.281	1172.083
966	0.990	0.002	5	480.981	568.921	1606.484	143.219	2763.610	545.481	4051.367	483.800	4473.156	1170.079
967	0.991	0.002	5	489.977	616.581	1610.813	138.795	2779.077	573.150	4069.089	511.681	4446.350	1218.673
968	0.992	0.002	5	501.396	672.153	1614.666	134.019	2795.941	594.912	4093.411	515.118	4434.361	1331.762
969	0.993	0.002	5	514.532	734.108	1617.028	129.991	2810.713	604.463	4115.619	491.783	4449.653	1503.121
970	0.994	0.002	5	528.396	798.763	1617.506	127.139	2820.003	599.688	4130.607	455.256	4498.641	1701.856
971	0.995	0.002	5	541.942	860.772	1616.200	125.339	2822.301	583.210	4139.540	417.303	4576.778	1893.368
972	0.996	0.002	5	554.306	913.833	1613.495	124.201	2818.303	559.739	4144.700	382.942	4671.788	2049.057
973	0.997	0.002	5	564.944	951.530	1609.886	123.336	2809.842	533.419	4147.538	353.978	4764.614	2146.728
974	0.998	0.002	5	573.576	968.568	1605.855	122.502	2798.804	506.885	4148.743	331.054	4831.343	2172.512
975	0.999	0.002	5	580.029	962.190	1601.777	121.659	2786.712	481.471	4148.536	314.347	4852.939	2124.319
976	1.000	0.002	5	584.191	932.985	1597.884	120.943	2774.746	457.724	4146.869	303.878	4828.922	2012.609
977	1.001	0.002	5	586.058	889.615	1594.587	120.623	2764.813	437.819	4143.921	299.816	4781.370	1871.701
978	1.002	0.002	5	586.409	828.519	1591.250	120.972	2755.750	418.192	4138.846	301.530	4718.097	1692.803
979	1.003	0.002	5	585.687	753.315	1587.988	122.693	2748.951	400.600	4130.796	311.193	4649.772	1490.598
980	1.004	0.002	5	585.147	683.839	1585.513	126.033	2746.117	389.793	4120.919	327.525	4594.216	1315.677
981	1.005	0.002	5	585.741	625.747	1584.050	130.944	2746.572	386.431	4110.050	348.311	4551.940	1177.195
982	1.006	0.002	5	588.558	572.180	1584.021	138.696	2750.454	392.333	4097.177	376.011	4515.767	1060.062
983	1.007	0.002	5	595.083	529.582	1586.996	149.857	2758.827	412.609	4085.554	407.590	4489.146	990.361
984	1.008	0.002	5	604.453	505.407	1593.156	161.808	2770.508	443.429	4081.613	431.810	4476.481	992.600
985	1.009	0.002	5	615.286	493.595	1601.250	172.982	2784.253	477.199	4085.188	444.175	4476.217	1053.849
986	1.010	0.002	5	628.470	487.586	1611.424	184.313	2801.094	511.685	4093.589	443.832	4492.850	1175.921
987	1.011	0.002	5	642.190	483.772	1621.698	194.469	2817.105	535.160	4101.636	432.731	4533.398	1333.983
988	1.012	0.002	5	652.110	478.728	1628.582	201.381	2825.434	539.622	4105.484	421.892	4581.259	1451.019
989	1.013	0.002	5	657.733	471.072	1632.000	205.477	2826.607	531.709	4106.264	415.768	4618.429	1503.290
990	1.014	0.002	5	659.687	458.658	1632.539	207.054	2822.411	514.514	4104.619	414.780	4638.770	1490.480
991	1.015	0.002	5	657.100	440.532	1629.781	204.184	2814.833	490.988	4099.985	421.407	4632.994	1403.836
992	1.016	0.002	5	651.419	420.454	1625.116	196.376	2808.461	469.220	4092.949	435.075	4609.484	1280.649
993	1.017	0.002	5	644.655	400.320	1620.084	184.866	2805.126	452.040	4084.071	453.919	4581.236	1152.563
994	1.018	0.002	5	636.730	377.521	1614.715	168.442	2805.218	438.243	4071.728	481.058	4549.115	1012.469
995	1.019	0.002	5	628.758	353.731	1609.933	148.571	2809.821	430.611	4056.314	516.164	4516.846	877.047
996	1.020	0.002	5	622.748	334.314	1606.852	131.058	2817.203	430.021	4042.693	550.396	4490.685	777.912
997	1.021	0.002	5	618.496	319.207	1605.093	117.063	2825.276	433.390	4033.344	580.724	4469.021	711.068
998	1.022	0.002	5	614.997	305.375	1604.158	104.304	2834.143	439.480	4029.235	610.851	4446.106	662.178
999	1.023	0.002	5	612.254	293.119	1604.193	93.400	2842.216	447.280	4034.864	637.099	4420.241	635.052
1000	1.024	0.002	5	610.429	283.861	1605.123	85.728	2847.338	455.244	4051.065	652.441	4393.660	631.350
1001	1.025	0.002	5	609.190	276.637	1606.681	80.290	2850.214	464.077	4076.402	656.336	4364.768	645.270
1002	1.026	0.002	5	608.171	269.078	1609.399	75.281	2852.576	478.752	4124.452	636.322	4318.310	694.595
1003	1.027	0.002	5	607.743	263.030	1612.629	71.842	2855.615	498.360	4171.113	537.260	4277.126	829.744
1004	1.028	0.001	5	607.928	257.753	1616.461	69.272	2862.048	525.778	4177.456	439.547	4278.215	976.206
1005	1.029	0.001	5	608.745	253.536	1620.358	67.518	2873.361	558.226	4178.111	382.164	4283.871	1093.216
1006	1.030	0.001	5	610.613	248.823	1625.379	65.903	2897.284	605.116	4179.702	334.782	4285.573	1237.324
1007	1.031	0.001	5	613.081	244.074	1630.109	64.636	2931.701	650.060	4182.797	304.892	4277.503	1384.088
1008	1.032	0.001	5	615.960	237.852	1634.733	63.354	2977.896	686.228	4187.377	283.972	4257.388	1547.507
1009	1.033	0.001	5	618.535	230.091	1638.661	62.097	3025.933	701.206	4192.480	270.629	4228.499	1702.418
1010	1.034	0.001	5	621.037	217.675	1642.869	60.532	3081.027	690.486	4183.798	1870.185	4199.203	260.170
1011	1.035	0.001	5	622.439	203.781	1646.198	59.198	3120.393	659.330	4140.202	1979.824	4205.320	255.186
1012	1.036	0.001	5	622.943	188.652	1649.074	58.121	3146.496	619.093	4105.759	2042.539	4210.606	254.411
1013	1.037	0.001	5	622.764	174.958	1651.372	57.473	3160.681	581.211	4094.265	2077.027	4213.846	257.492
1014	1.038	0.001	5	621.996	159.717	1653.808	57.230	3169.816	538.482	4117.165	2121.142	4214.692	265.946
1015	1.039	0.001	5	620.948	147.374	1655.770	57.620	3174.013	505.088	4176.335	2181.579	4212.043	277.168
1016	1.040	0.001	5	619.673	136.604	1657.500	58.706	3176.425	480.179	4206.587	289.341	4266.688	2262.615
1017	1.041	0.001	5	618.217	127.233	1659.069	60.623	3178.212	465.680	4199.732	299.933	4377.867	2357.083
1018	1.042	0.001	5	616.594	119.107	1660.620	63.550	3179.975	462.100	4193.113	307.250	4499.158	2458.197
1019	1.043	0.001	5	614.804	112.153	1662.348	67.699	3182.159	468.698	4187.788	310.260	4624.942	2566.335
1020	1.044	0.001	5	612.830	106.363	1664.465	73.280	3185.357	483.733	4183.976	308.011	4761.375	2692.812
1021	1.045	0.001	5	610.651	101.755	1667.162	80.451	3190.498	504.501	4181.295	299.665	4941.378	2861.407
1022	1.046	0.0007	5	608.243	98.358	1670.587	89.244	3198.804	527.164	4179.204	285.040	5414.128	3111.226
1023	1.047	0.0007	4	605.584	96.189	1674.837	99.476	3211.372	546.607	4177.396	265.014	--undefined--	--undefined--
1024	1.048	0.0007	4	602.653	95.232	1679.935	110.681	3228.297	557.017	4175.942	241.448	--undefined--	--undefined--
1025	1.049	0.0007	4	599.401	95.383	1685.780	122.137	3247.863	553.928	4175.159	216.733	--undefined--	--undefined--
1026	1.050	0.0007	4	596.083	96.285	1691.497	132.132	3265.223	539.009	4175.314	195.252	--undefined--	--undefined--
1027	1.051	0.0007	4	591.450	97.912	1698.319	143.177	3281.961	510.640	4176.777	172.770	--undefined--	--undefined--
1028	1.052	0.0007	4	586.307	99.411	1703.895	152.695	3291.342	481.715	4179.244	156.578	--undefined--	--undefined--
1029	1.053	0.0007	4	580.014	100.389	1708.229	162.509	3294.493	456.359	4182.390	145.169	--undefined--	--undefined--
1030	1.054	0.0007	4	573.114	100.448	1710.692	172.439	3292.246	439.765	4185.287	138.979	--undefined--	--undefined--
1031	1.055	0.0007	4	563.316	99.128	1711.347	185.935	3283.736	429.739	4187.890	136.468	--undefined--	--undefined--
1032	1.056	0.0007	4	553.081	96.422	1709.368	199.028	3270.725	429.593	4188.485	138.270	--undefined--	--undefined--
1033	1.057	0.0007	4	542.059	92.338	1704.699	210.919	3252.726	435.818	4186.456	143.068	--undefined--	--undefined--
1034	1.058	0.0007	4	531.802	87.661	1698.172	218.674	3231.936	443.694	4181.710	148.885	--undefined--	--undefined--
1035	1.059	0.0007	4	519.807	81.365	1687.819	222.025	3201.919	450.219	4171.887	155.574	--undefined--	--undefined--
1036	1.060	0.0007	4	509.645	75.584	1676.272	218.756	3171.468	448.217	4159.081	158.935	--undefined--	--undefined--
1037	1.061	0.0007	4	500.686	70.435	1662.913	210.329	3141.565	436.500	4143.698	157.444	--undefined--	--undefined--
1038	1.062	0.0007	4	493.794	66.707	1649.223	199.739	3117.795	419.410	4129.047	151.261	--undefined--	--undefined--
1039	1.063	0.0007	4	487.215	63.682	1631.109	185.564	3096.141	396.483	4112.869	139.249	--undefined--	--undefined--
1040	1.064	0.0007	4	482.797	62.251	1613.580	172.961	3083.869	378.779	4100.947	126.722	--undefined--	--undefined--
1041	1.065	0.0007	4	479.846	61.843	1596.169	161.989	3078.886	368.575	4092.517	115.622	--undefined--	--undefined--
1042	1.066	0.0007	4	478.340	62.078	1581.281	154.064	3080.429	368.299	4087.957	108.378	--undefined--	--undefined--
1043	1.067	0.0007	4	477.870	62.824	1565.466	147.558	3089.644	381.404	4086.114	104.176	--undefined--	--undefined--
1044	1.068	0.0004	4	478.569	63.822	1553.526	144.602	3105.082	407.224	4087.456	104.628	--undefined--	--undefined--
1045	1.069	0.0004	4	480.174	65.143	1544.421	144.411	3127.237	445.740	4091.163	108.675	--undefined--	--undefined--
1046	1.070	0.0004	4	482.250	66.687	1538.762	146.322	3153.084	489.782	4096.087	114.850	--undefined--	--undefined--
1047	1.071	0.0004	4	485.266	68.974	1535.187	150.500	3190.471	549.045	4103.206	124.558	--undefined--	--undefined--
1048	1.072	0.0004	4	488.266	71.322	1534.566	155.131	3229.072	603.316	4110.057	135.033	--undefined--	--undefined--
1049	1.073	0.0004	4	491.206	73.579	1535.712	159.425	3269.241	652.145	4116.334	146.745	--undefined--	--undefined--
1050	1.074	0.0004	4	493.594	75.214	1537.491	162.264	3305.140	689.476	4120.850	158.545	--undefined--	--undefined--
1051	1.075	0.0004	4	495.833	76.273	1539.554	163.723	3345.940	724.587	4124.026	174.508	--undefined--	--undefined--
1052	1.076	0.0004	4	497.085	76.185	1540.659	163.021	3380.283	747.363	4124.285	191.203	--undefined--	--undefined--
1053	1.077	0.0004	4	497.462	75.111	1540.609	160.534	3410.221	761.837	4121.730	209.934	--undefined--	--undefined--
1054	1.078	0.0004	4	497.026	73.472	1539.471	157.084	3431.519	770.416	4116.823	228.396	--undefined--	--undefined--
1055	1.079	0.0004	4	495.583	71.096	1536.860	152.134	3446.420	781.865	4107.366	251.258	--undefined--	--undefined--
1056	1.080	0.0004	4	493.493	69.019	1533.527	147.570	3446.979	801.518	4094.769	270.997	--undefined--	--undefined--
1057	1.081	0.0004	4	490.814	67.522	1529.517	143.664	3432.129	834.987	4078.131	286.525	--undefined--	--undefined--
1058	1.082	0.0004	4	487.985	66.988	1525.319	141.081	3402.769	874.141	4060.211	293.627	--undefined--	--undefined--
1059	1.083	0.0004	4	484.244	67.660	1519.403	139.392	3347.680	912.533	4038.148	289.807	--undefined--	--undefined--
1060	1.084	0.0004	5	480.630	69.640	1512.838	139.038	3287.397	915.088	4021.199	274.561	5318.071	2569.538
1061	1.085	0.0004	5	477.013	72.867	1504.953	139.363	3232.061	878.036	4009.861	251.257	5125.233	2401.912
1062	1.086	0.0005	5	473.891	76.676	1496.660	139.690	3192.486	816.945	4004.580	226.042	5200.581	2399.027
1063	1.087	0.0005	4	470.587	81.814	1485.652	139.313	3157.316	722.309	4003.178	194.008	--undefined--	--undefined--
1064	1.088	0.0005	4	468.194	86.320	1475.148	137.573	3131.999	626.952	4005.105	165.984	--undefined--	--undefined--
1065	1.089	0.0005	4	466.569	89.846	1464.937	134.170	3109.664	533.305	4009.197	141.708	--undefined--	--undefined--
1066	1.090	0.0007	4	465.844	91.759	1456.436	129.716	3091.170	455.246	4014.476	123.897	--undefined--	--undefined--
1067	1.091	0.0007	4	465.957	92.319	1447.682	123.142	3072.015	374.364	4022.459	107.989	--undefined--	--undefined--
1068	1.092	0.0007	4	466.950	91.426	1441.197	116.539	3058.354	313.974	4030.915	98.225	--undefined--	--undefined--
1069	1.093	0.0007	4	468.656	89.584	1436.072	109.911	3048.894	266.804	4039.891	92.634	--undefined--	--undefined--
1070	1.094	0.0007	4	470.663	87.378	1432.379	104.161	3043.845	234.691	4048.010	90.961	--undefined--	--undefined--
1071	1.095	0.0007	4	473.425	84.338	1428.873	97.821	3041.725	208.198	4057.130	93.143	--undefined--	--undefined--
1072	1.096	0.0007	4	476.123	81.370	1426.337	92.643	3042.916	193.738	4064.458	99.053	--undefined--	--undefined--
1073	1.097	0.0007	4	478.884	78.418	1424.345	88.124	3046.507	186.852	4070.496	108.284	--undefined--	--undefined--
1074	1.098	0.0007	4	481.428	75.924	1422.984	84.639	3051.481	185.627	4074.697	118.702	--undefined--	--undefined--
1075	1.099	0.0007	4	484.559	73.369	1421.911	81.325	3059.298	188.580	4077.957	131.931	--undefined--	--undefined--
1076	1.100	0.0007	4	487.562	71.525	1421.422	79.166	3068.073	194.073	4079.201	142.834	--undefined--	--undefined--
1077	1.101	0.0007	5	490.760	70.086	1421.316	77.807	3078.251	201.407	4078.989	151.294	5247.935	2660.234
1078	1.102	0.0007	5	493.891	68.970	1421.458	77.146	3088.575	209.459	4077.931	156.717	5115.046	2566.436
1079	1.103	0.0007	5	497.988	67.608	1421.823	76.826	3102.044	220.862	4076.215	161.178	5067.366	2494.703
1080	1.104	0.0007	5	502.094	66.098	1422.268	76.698	3115.112	232.909	4074.761	164.504	5056.258	2451.576
1081	1.105	0.0007	5	506.518	64.162	1422.780	76.444	3128.499	246.120	4073.812	168.208	5049.679	2418.125
1082	1.106	0.0007	5	510.767	61.972	1423.299	75.928	3140.614	258.578	4073.582	172.538	5039.550	2390.104
1083	1.107	0.0007	5	516.060	58.849	1424.020	74.847	3154.674	273.118	4074.184	179.285	5026.325	2357.067
1084	1.108	0.0007	5	520.997	55.663	1424.845	73.458	3166.820	285.060	4075.473	186.737	5028.816	2330.417
1085	1.109	0.0007	5	525.916	52.375	1425.910	71.827	3178.106	294.856	4077.186	194.661	5068.573	2313.632
1086	1.110	0.0007	5	530.290	49.453	1427.130	70.267	3187.526	301.656	4078.806	201.468	5164.149	2310.437
1087	1.111	0.0007	4	535.303	46.155	1428.886	68.428	3197.516	307.756	4080.484	208.482	--undefined--	--undefined--
1088	1.112	0.0007	4	539.570	43.382	1430.662	66.855	3205.007	312.652	4081.490	213.991	--undefined--	--undefined--
1089	1.113	0.0007	4	543.436	40.872	1432.426	65.468	3210.477	318.144	4081.657	219.427	--undefined--	--undefined--
1090	1.114	0.0007	4	546.556	38.847	1433.865	64.464	3213.489	324.098	4080.708	225.071	--undefined--	--undefined--
1091	1.115	0.0007	4	549.771	36.794	1435.198	63.761	3214.700	331.976	4077.580	233.493	--undefined--	--undefined--
1092	1.116	0.0007	4	552.205	35.326	1435.877	63.814	3213.940	338.629	4072.088	243.181	--undefined--	--undefined--
1093	1.117	0.0007	4	554.157	34.296	1435.893	64.774	3212.094	343.273	4063.238	254.670	--undefined--	--undefined--
1094	1.118	0.0007	4	555.525	33.764	1435.226	66.646	3210.086	345.004	4051.582	266.068	--undefined--	--undefined--
1095	1.119	0.0007	4	556.678	33.653	1433.446	70.445	3207.797	344.169	4032.588	279.281	--undefined--	--undefined--
1096	1.120	0.0007	4	557.289	34.069	1430.761	75.721	3205.979	341.842	4010.939	288.843	--undefined--	--undefined--
1097	1.121	0.0007	4	557.494	34.995	1426.948	83.033	3204.408	339.621	3987.027	294.440	--undefined--	--undefined--
1098	1.122	0.0007	5	557.350	36.297	1422.377	91.698	3203.189	338.889	3965.359	296.162	5431.711	1425.813
1099	1.123	0.0007	5	556.791	38.461	1415.279	104.847	3202.045	340.819	3941.707	295.807	5317.895	1364.167
1100	1.124	0.0007	5	555.939	41.038	1406.944	119.449	3201.328	346.031	3923.421	295.392	5270.804	1323.636
1101	1.125	0.0007	5	554.796	44.181	1396.584	135.868	3200.831	354.811	3908.511	296.419	5232.963	1292.807
1102	1.126	0.0007	5	553.533	47.499	1385.307	151.266	3200.353	365.657	3897.447	298.867	5197.269	1269.071
1103	1.127	0.0007	5	551.762	51.974	1369.705	168.203	3199.240	381.350	3886.379	302.792	5149.748	1242.218
1104	1.128	0.0007	5	549.917	56.427	1354.179	180.110	3196.958	396.871	3877.386	305.652	5103.478	1217.366
1105	1.129	0.0007	5	547.878	61.110	1338.576	187.202	3192.487	411.559	3868.733	305.960	5058.608	1192.330
1106	1.130	0.0007	5	545.879	65.558	1325.194	189.419	3185.675	422.209	3860.879	302.958	5022.770	1170.719
1107	1.131	0.0007	5	543.324	71.276	1310.825	187.819	3173.376	428.765	3851.612	295.110	4990.089	1148.781
1108	1.132	0.0007	5	540.848	77.149	1299.387	183.618	3158.474	426.716	3843.659	285.162	4972.159	1134.617
1109	1.133	0.0007	5	538.225	83.956	1289.337	177.874	3141.566	416.646	3836.486	274.864	4965.415	1126.915
1110	1.134	0.0007	5	535.664	91.236	1281.072	171.849	3126.246	402.071	3830.596	267.191	4966.835	1124.877
1111	1.135	0.0007	5	532.265	101.703	1271.871	164.009	3110.236	381.347	3823.928	262.022	4973.743	1126.856
1112	1.136	0.0007	5	528.701	113.258	1263.900	156.510	3099.481	362.962	3817.553	261.921	4980.873	1131.194
1113	1.137	0.0007	5	524.566	126.869	1256.274	148.930	3093.330	348.195	3810.009	265.762	4985.800	1136.814
1114	1.138	0.0007	5	520.222	140.959	1249.617	142.072	3091.815	339.607	3801.204	271.178	4987.585	1142.514
1115	1.139	0.0007	5	514.250	159.428	1241.973	133.854	3094.558	336.562	3787.075	276.938	4987.930	1149.700
1116	1.140	0.0006	5	508.189	176.643	1235.291	126.142	3100.403	340.929	3770.313	278.123	4990.518	1156.465
1117	1.141	0.0006	5	501.872	192.388	1228.904	117.999	3108.096	351.455	3750.588	273.047	5000.609	1162.765
1118	1.142	0.0006	5	496.223	203.822	1223.323	110.015	3115.449	365.263	3731.282	262.780	5019.494	1165.220
1119	1.143	0.0006	5	489.873	212.128	1216.851	99.545	3123.002	385.584	3707.906	245.137	5052.291	1154.807
1120	1.144	0.0006	5	484.536	213.635	1211.085	89.182	3127.159	406.603	3687.256	226.345	5081.848	1121.362
1121	1.145	0.0006	5	479.522	209.609	1205.485	78.517	3127.715	428.946	3668.027	207.191	5098.550	1060.920
1122	1.146	0.0006	5	475.047	202.388	1200.606	69.131	3125.106	449.583	3652.253	190.752	5099.248	989.462
1123	1.147	0.0006	5	469.545	191.477	1195.151	58.981	3118.860	473.754	3635.828	173.405	5087.908	900.247
1124	1.148	0.0006	5	464.224	181.274	1190.656	51.184	3110.932	494.551	3623.132	160.311	5073.188	830.390
1125	1.149	0.0006	5	458.573	172.186	1186.734	44.955	3101.224	513.159	3612.391	149.793	5058.275	781.045
1126	1.150	0.0006	5	453.146	165.420	1183.704	40.580	3090.889	527.266	3604.009	142.000	5045.417	757.082
1127	1.151	0.0006	5	446.307	159.338	1180.752	36.746	3076.799	539.794	3595.314	134.052	5030.516	755.313
1128	1.152	0.0006	5	439.773	155.556	1178.688	34.386	3062.708	547.233	3588.357	127.317	5016.270	778.094
1129	1.153	0.0006	5	433.050	153.136	1177.203	32.961	3047.757	551.999	3582.175	120.435	4999.568	819.478
1130	1.154	0.0006	5	426.838	151.676	1176.318	32.369	3033.054	555.256	3577.136	113.684	4979.994	864.379
1131	1.155	0.0006	5	419.376	150.090	1175.771	32.428	3012.725	558.845	3571.758	104.851	4949.050	908.141
1132	1.156	0.0006	5	412.684	148.089	1175.688	33.157	2990.483	561.811	3567.518	96.378	4917.252	919.558
1133	1.157	0.0005	5	406.335	145.258	1175.933	34.561	2965.391	563.845	3564.145	88.220	4892.297	897.502
1134	1.158	0.0005	5	400.537	141.765	1176.438	36.775	2939.658	565.014	3561.850	81.120	4881.932	852.049
1135	1.159	0.0005	5	395.457	137.958	1177.131	40.010	2915.555	566.687	3560.622	75.602	4885.377	798.284
1136	1.160	0.0003	5	391.185	134.183	1177.936	44.542	2894.399	570.841	3560.210	71.857	4897.079	747.330
1137	1.161	0.0003	5	387.732	130.785	1178.788	50.738	2876.580	579.337	3560.230	69.829	4911.802	704.603
1138	1.162	0.0003	5	385.048	128.119	1179.649	59.108	2861.898	593.696	3560.259	69.359	4925.945	671.406
1139	1.163	0.0003	5	383.045	126.515	1180.530	70.348	2849.827	615.073	3559.899	70.289	4937.097	646.982
1140	1.164	0.0003	5	381.631	126.232	1181.494	85.359	2839.659	644.200	3558.830	72.510	4943.630	629.918
1141	1.165	0.0003	5	380.722	127.420	1182.656	105.217	2830.526	681.350	3556.857	75.966	4944.573	618.655
1142	1.166	0.0003	5	380.253	130.106	1184.176	131.076	2821.360	726.461	3553.920	80.620	4939.579	611.477
1143	1.167	0.0003	5	380.163	134.221	1186.249	164.012	2810.936	779.509	3550.085	86.417	4928.897	606.513
1144	1.168	0.0003	5	380.389	139.656	1189.098	204.929	2798.020	841.034	3545.515	93.259	4913.301	602.145
1145	1.169	0.0003	5	380.858	146.326	1193.002	254.673	2781.547	912.675	3540.441	101.004	4893.890	597.726
1146	1.170	0.0003	5	381.501	154.201	1198.373	314.489	2760.569	997.663	3535.120	109.455	4871.625	594.030
1147	1.171	0.0003	5	382.270	163.289	1205.909	386.695	2733.764	1101.228	3529.779	118.313	4846.786	592.882
1148	1.172	0.0003	5	383.163	173.528	1216.856	475.347	2698.352	1230.887	3524.538	127.079	4818.692	595.991
1149	1.173	0.0003	5	384.220	184.649	1233.552	586.845	2648.253	1396.479	3519.394	134.970	4785.917	603.519
1150	1.174	0.0002	5	385.476	196.038	1260.780	730.749	2570.714	1609.390	3514.288	140.997	4746.959	612.893
1151	1.175	0.0002	5	386.863	206.672	1309.864	921.259	2438.834	1879.276	3509.246	144.261	4701.377	618.451
1152	1.176	0.0002	5	388.067	215.248	1416.945	1173.944	2187.783	2210.541	3504.471	144.390	4651.200	613.153
1153	1.177	0.0002	5	388.472	220.603	1670.360	2861.901	1677.830	1231.592	3500.267	141.838	4601.405	593.331
1154	1.178	0.0002	5	387.346	222.288	1080.356	3913.679	1786.528	981.739	3496.870	137.802	4557.826	563.011
1155	1.179	0.0002	4	384.607	221.033	1823.540	843.264	3494.538	134.123	4526.632	534.389	--undefined--	--undefined--
1156	1.180	0.0002	4	379.213	217.174	1847.356	733.162	3492.634	131.181	4500.178	507.967	--undefined--	--undefined--
1157	1.181	0.0002	4	372.664	212.541	1859.774	660.979	3491.702	130.812	4484.588	494.531	--undefined--	--undefined--
1158	1.182	0.0002	4	365.045	207.758	1867.065	604.572	3491.600	133.030	4474.511	488.962	--undefined--	--undefined--
1159	1.183	0.0002	4	357.506	203.775	1871.033	561.737	3492.350	137.304	4467.839	486.084	--undefined--	--undefined--
1160	1.184	0.0001	4	347.986	199.741	1874.081	516.763	3494.546	145.139	4460.682	478.998	--undefined--	--undefined--
1161	1.185	0.0001	4	338.995	196.536	1876.426	479.230	3498.096	154.710	4453.845	464.880	--undefined--	--undefined--
1162	1.186	0.0001	4	329.907	192.908	1879.176	443.927	3503.467	166.214	4446.714	442.673	--undefined--	--undefined--
1163	1.187	0.00009	4	321.751	187.990	1882.339	413.308	3510.255	177.896	4440.452	417.603	--undefined--	--undefined--
1164	1.188	0.0001	5	312.530	178.301	696.902	4420.037	1886.815	378.212	3521.218	192.663	4433.886	386.506
1165	1.189	0.0001	5	305.137	164.956	1060.855	3885.907	1890.986	347.636	3534.324	206.037	4429.137	362.275
1166	1.190	0.0001	5	299.133	148.037	1237.234	3496.975	1894.453	318.928	3550.583	218.336	4425.645	346.072
1167	1.191	0.0001	5	294.923	131.154	1333.371	3241.533	1896.416	295.131	3568.064	227.870	4423.450	339.904
1168	1.192	0.0001	5	291.174	111.312	1410.780	3026.481	1896.744	270.869	3591.759	236.694	4421.898	342.943
1169	1.193	0.0001	5	288.614	95.043	1467.718	2891.471	1894.780	254.380	3614.494	242.735	4421.426	352.862
1170	1.194	0.0001	5	286.554	81.205	1527.543	2797.271	1890.400	245.042	3635.674	248.870	4421.661	364.291
1171	1.195	0.0001	5	284.920	70.680	1595.856	2736.402	1884.028	243.894	3651.162	257.488	4421.988	370.892
1172	1.196	0.0001	5	283.119	60.257	1707.112	2680.310	1872.707	252.428	3662.365	275.760	4421.622	369.956
1173	1.197	0.0001	5	281.564	52.409	1842.001	2623.744	1857.894	268.901	3664.187	302.064	4420.312	360.711
1174	1.198	0.0001	5	280.090	45.854	1838.050	290.632	2002.383	2535.715	3658.084	335.750	4418.975	345.687
1175	1.199	0.0001	5	278.825	40.807	1815.746	310.891	2156.151	2413.594	3647.230	368.300	4419.039	328.915
1176	1.200	0.0001	5	277.408	35.686	1785.445	330.774	2327.104	2215.409	3631.508	402.065	4422.155	306.814
1177	1.201	0.0001	5	276.206	31.749	1757.164	342.847	2452.454	2001.822	3619.369	421.540	4428.473	285.899
1178	1.202	0.0001	5	275.098	28.466	1731.118	350.427	2539.338	1782.122	3613.464	426.638	4437.752	264.848
1179	1.203	0.0001	5	274.175	26.056	1711.011	356.003	2585.662	1597.052	3614.782	418.844	4447.873	245.612
1180	1.204	0.0001	5	273.187	23.957	1692.754	364.929	2606.854	1413.198	3623.469	397.548	4460.502	222.560
1181	1.205	0.0001	5	272.408	22.873	1682.307	378.813	2600.624	1290.881	3635.744	372.547	4470.934	202.095
1182	1.206	0.0001	5	271.758	22.648	1677.943	400.861	2575.321	1213.371	3650.108	348.159	4479.160	183.211
1183	1.207	0.0001	5	271.280	23.197	1679.077	429.103	2538.724	1177.534	3663.956	329.633	4484.471	168.105
1184	1.208	0.0001	5	270.837	24.757	1686.957	472.982	2480.797	1170.402	3680.560	313.705	4488.598	153.135
1185	1.209	0.0001	5	270.537	26.948	1701.519	520.514	2417.343	1192.728	3694.676	305.667	4491.084	142.743
1186	1.210	0.0001	5	270.309	29.709	1725.491	569.820	2347.008	1242.793	3706.492	304.270	4493.156	135.728
1187	1.211	0.0001	5	270.139	32.536	1757.811	607.015	2279.386	1319.865	3714.265	309.121	4495.167	132.323
1188	1.212	0.0001	5	269.940	36.038	1808.056	620.429	2200.065	1472.202	3718.993	322.774	4498.090	131.709
1189	1.213	0.0001	5	269.721	39.041	1850.837	591.545	2145.468	1676.132	3718.699	342.089	4501.414	133.770
1190	1.214	0.0001	5	269.421	41.549	1879.409	547.157	2118.887	1908.010	3714.430	366.190	4505.408	137.182
1191	1.215	0.0001	5	269.049	43.217	1896.354	511.129	2113.871	2113.037	3707.916	390.256	4509.597	140.260
1192	1.216	0.0001	5	268.454	44.331	1910.924	477.944	2122.816	2329.030	3698.122	419.285	4515.150	142.412
1193	1.217	0.0001	5	267.767	44.523	1921.249	456.069	2139.218	2485.338	3688.385	444.429	4520.378	141.902
1194	1.218	0.0001	5	266.962	44.048	1929.539	440.805	2159.498	2598.575	3678.513	467.893	4525.193	138.749
1195	1.219	0.0001	5	266.152	43.197	1935.474	431.790	2179.566	2670.428	3669.284	488.594	4528.737	133.963
1196	1.220	0.0001	5	265.117	41.875	1940.569	426.476	2205.550	2735.061	3656.872	514.678	4531.494	126.793
1197	1.221	0.0001	5	264.139	40.573	1943.221	426.550	2233.109	2795.864	3642.548	542.076	4532.463	119.926
1198	1.222	0.0001	5	263.157	39.340	1943.884	430.894	2267.896	2884.179	3623.238	574.601	4532.153	113.698
1199	1.223	0.0001	5	262.276	38.373	1942.794	437.765	2309.647	3014.712	3599.360	608.580	4531.148	109.122
1200	1.224	0.0001	5	261.245	37.483	1939.633	447.916	2377.091	3281.601	3560.633	650.407	4529.697	105.344
1201	1.225	0.0001	5	260.331	36.963	1935.510	456.751	2456.732	3700.727	3515.983	679.080	4528.782	103.498
1202	1.226	0.0001	5	259.443	36.727	1930.925	462.562	2547.837	4407.652	3468.721	685.420	4528.796	102.811
1203	1.227	0.0001	5	258.653	36.747	1926.854	463.069	2632.199	5569.072	3432.287	668.950	4529.869	102.621
1204	1.228	0.0001	4	257.713	37.048	1922.346	455.323	3404.337	632.177	4532.484	102.042	--undefined--	--undefined--
1205	1.229	0.0001	4	256.847	37.579	1918.382	439.450	3393.436	594.863	4535.825	100.430	--undefined--	--undefined--
1206	1.230	0.0001	4	255.959	38.341	1914.147	416.946	3392.152	561.782	4539.572	97.466	--undefined--	--undefined--
1207	1.231	0.0001	4	255.110	39.197	1909.760	394.122	3395.170	538.668	4542.970	93.792	--undefined--	--undefined--
1208	1.232	0.0001	4	254.004	40.326	1903.697	369.133	3399.532	522.318	4546.798	88.850	--undefined--	--undefined--
1209	1.233	0.0001	4	252.865	41.311	1897.418	352.977	3401.123	519.890	4550.022	84.606	--undefined--	--undefined--
1210	1.234	0.0001	4	251.573	42.084	1890.406	346.201	3398.713	530.037	4552.981	81.309	--undefined--	--undefined--
1211	1.235	0.0001	4	250.253	42.491	1883.094	349.429	3393.049	549.467	4555.388	79.543	--undefined--	--undefined--
1212	1.236	0.0001	4	248.492	42.512	1872.195	365.780	3384.137	583.158	4557.717	79.366	--undefined--	--undefined--
1213	1.237	0.0001	4	246.723	42.026	1858.527	392.850	3378.292	620.854	4559.024	81.343	--undefined--	--undefined--
1214	1.238	0.0001	4	244.829	41.038	1838.685	430.614	3379.831	662.242	4559.279	85.390	--undefined--	--undefined--
1215	1.239	0.0001	5	243.025	39.735	1812.159	470.910	2786.014	5200.343	3390.355	701.311	4558.589	90.387
1216	1.240	0.0001	5	240.807	37.786	1765.937	515.109	2868.915	3622.862	3413.489	749.010	4557.138	96.486
1217	1.241	0.0001	5	238.785	35.792	1711.159	534.993	2958.932	2798.949	3440.005	796.690	4556.150	100.281
1218	1.242	0.00008	5	236.845	33.769	1652.552	527.249	3058.656	2204.886	3466.633	860.974	4556.147	101.296
1219	1.243	0.00008	5	235.214	32.039	1602.524	502.864	3142.370	1735.620	3493.701	961.897	4556.868	100.112
1220	1.244	0.00008	5	233.490	30.274	1550.493	465.919	3156.757	1199.611	3593.883	1131.974	4557.916	97.205
1221	1.245	0.00008	5	232.172	29.119	1511.987	435.129	3117.257	917.956	3712.205	1125.065	4558.426	93.973
1222	1.246	0.00008	5	231.116	28.552	1483.313	413.477	3090.628	739.348	3789.111	1057.647	4558.166	90.510
1223	1.247	0.00008	5	230.366	28.591	1466.167	403.683	3072.113	623.561	3830.353	990.772	4557.178	87.210
1224	1.248	0.00008	5	229.685	29.234	1456.156	403.225	3053.514	523.761	3854.216	922.328	4555.196	83.236
1225	1.249	0.00008	5	229.218	30.165	1455.339	410.142	3039.156	457.940	3860.581	874.269	4553.012	79.934
1226	1.250	0.00007	5	228.847	31.169	1460.131	420.065	3027.425	408.124	3859.487	837.315	4550.992	77.320
1227	1.251	0.00007	5	228.558	31.989	1467.393	429.164	3019.079	372.124	3856.361	809.875	4549.684	75.717
1228	1.252	0.00007	5	228.238	32.763	1477.724	438.489	3011.751	337.276	3853.247	781.147	4549.127	74.729
1229	1.253	0.00007	5	227.946	33.256	1487.459	445.115	3007.174	311.877	3852.227	756.730	4549.756	74.398
1230	1.254	0.00007	5	227.636	33.558	1496.763	450.132	3004.167	292.186	3852.812	733.088	4551.490	74.034
1231	1.255	0.00007	5	227.330	33.687	1504.608	453.634	3002.487	279.063	3854.080	712.131	4553.891	73.086
1232	1.256	0.00007	5	226.917	33.687	1513.145	456.971	3001.619	269.126	3855.722	688.435	4557.392	70.547
1233	1.257	0.00007	5	226.480	33.574	1520.049	459.698	3002.004	265.298	3857.110	669.646	4560.569	66.724
1234	1.258	0.00007	5	225.968	33.398	1525.895	462.661	3003.813	266.039	3858.863	655.469	4563.006	61.884
1235	1.259	0.0001	5	225.423	33.218	1529.986	465.995	3007.017	269.988	3861.632	647.660	4564.099	57.239
1236	1.260	0.0001	5	224.648	32.999	1532.651	471.159	3013.149	277.338	3867.795	644.627	4563.680	52.175
1237	1.261	0.0001	5	223.811	32.787	1531.895	477.009	3020.922	284.390	3877.294	645.796	4561.647	48.524
1238	1.262	0.0001	5	222.846	32.539	1526.718	483.586	3030.147	288.996	3891.013	646.355	4558.290	45.997
1239	1.263	0.0001	5	221.863	32.265	1517.009	489.769	3038.822	288.775	3906.858	641.449	4554.408	44.626
1240	1.264	0.0001	5	220.570	31.878	1498.089	496.999	3048.078	280.888	3928.670	623.007	4549.165	43.966
1241	1.265	0.0001	5	219.323	31.494	1474.093	503.515	3054.262	265.982	3949.199	592.058	4544.196	44.092
1242	1.266	0.0001	5	218.094	31.107	1445.818	510.988	3057.611	245.262	3967.974	550.885	4539.322	44.725
1243	1.267	0.0001	5	217.080	30.763	1419.518	520.572	3058.072	223.865	3982.112	510.744	4534.999	45.633
1244	1.268	0.0001	5	216.118	30.334	1392.294	538.951	3055.622	198.684	3994.605	468.529	4529.690	47.134
1245	1.269	0.0001	5	215.583	29.831	1376.353	564.217	3051.186	178.983	4002.004	442.840	4524.247	49.011
1246	1.270	0.0001	5	215.427	29.070	1373.113	594.083	3045.735	164.207	4006.429	433.920	4517.780	51.483
1247	1.271	0.0001	5	215.610	28.072	1383.392	614.419	3040.838	155.597	4008.947	441.959	4510.829	54.263
1248	1.272	0.0001	5	216.227	26.737	1411.135	606.577	3035.834	151.483	4011.899	473.150	4501.394	58.252
1249	1.273	0.0001	5	217.250	26.242	1442.388	555.242	3032.096	154.152	4016.437	526.204	4492.264	62.757
1250	1.274	0.0001	5	218.926	27.776	1466.509	480.660	3028.451	165.226	4024.037	615.406	4482.998	68.587
1251	1.275	0.0001	5	221.571	32.708	1479.202	416.492	3024.610	188.890	4035.915	766.474	4473.384	75.590
1252	1.276	0.0001	5	225.563	42.380	1485.260	379.621	3022.079	228.312	4055.028	1014.627	4463.510	81.702
1253	1.277	0.0001	5	231.301	58.006	1490.617	368.946	3023.696	281.582	4088.719	1396.239	4454.941	84.789
1254	1.278	0.0001	5	239.131	79.919	1498.370	376.680	3030.876	341.704	4155.772	1940.068	4449.593	86.222
1255	1.279	0.0001	5	249.311	106.358	1508.800	394.801	3042.355	404.480	4295.080	2658.617	4447.859	89.172
1256	1.280	0.0001	5	262.021	132.952	1520.571	417.803	3058.441	473.733	4449.137	95.483	4572.832	3531.181
1257	1.281	0.0001	5	277.254	154.028	1532.351	443.394	3084.720	553.992	4452.847	105.206	5136.034	4455.668
1258	1.282	0.0001	4	294.508	165.266	1543.890	471.140	3130.814	639.814	4458.639	116.542	--undefined--	--undefined--
1259	1.283	0.0001	5	312.666	165.532	1555.637	500.827	3204.818	705.662	4465.953	125.681	4867.949	5548.682
1260	1.284	0.0001	5	330.297	156.567	1567.370	532.651	3298.928	708.117	4201.241	5747.798	4473.363	128.321
1261	1.285	0.0001	5	346.116	141.570	1577.187	569.468	3382.824	636.555	3769.446	6047.144	4478.979	122.968
1262	1.286	0.0001	5	359.308	124.009	1581.627	619.169	3437.404	537.306	3486.393	6332.181	4481.928	111.917
1263	1.287	0.0001	5	369.625	106.885	1575.762	695.013	3278.448	6130.177	3467.197	450.244	4482.798	98.807
1264	1.288	0.0001	5	377.270	92.318	1551.101	812.979	3148.560	5261.343	3481.038	388.261	4482.725	86.407
1265	1.289	0.0001	5	382.679	81.460	1491.257	979.445	3120.133	4145.983	3484.446	352.017	4482.537	76.104
1266	1.290	0.0001	5	386.352	74.626	1379.434	1155.256	3180.498	3132.060	3479.997	338.937	4482.482	68.243
1267	1.291	0.0001	5	388.732	71.402	1237.515	1269.730	3288.110	2370.061	3468.202	345.153	4482.317	62.622
1268	1.292	0.0001	5	390.090	70.712	1111.460	1319.779	3396.354	1858.361	3448.124	363.255	4481.533	58.923
1269	1.293	0.0001	5	390.476	71.192	1023.166	1332.337	3419.753	378.832	3490.936	1538.600	4479.637	56.921
1270	1.294	0.0001	5	389.956	71.922	973.375	1319.897	3389.015	377.271	3570.151	1356.802	4476.404	56.428
1271	1.295	0.0001	5	388.867	72.679	950.818	1290.319	3364.039	361.700	3632.745	1257.171	4471.905	57.160
1272	1.296	0.0001	5	387.642	73.555	941.752	1252.589	3346.185	343.548	3681.687	1194.582	4466.417	58.714
1273	1.297	0.0001	5	386.496	74.616	937.265	1214.095	3333.702	328.161	3720.270	1146.809	4460.347	60.653
1274	1.298	0.0001	5	385.323	75.832	934.111	1178.873	3325.328	316.769	3749.828	1106.543	4454.150	62.633
1275	1.299	0.0001	5	383.785	77.171	932.200	1148.375	3320.359	309.244	3770.851	1072.878	4448.224	64.512
1276	1.300	0.0001	5	381.463	78.674	932.234	1122.783	3318.262	304.649	3783.980	1047.218	4442.809	66.349
1277	1.301	0.0001	5	378.007	80.452	934.525	1101.864	3318.550	301.118	3790.364	1031.810	4437.974	68.322
1278	1.302	0.0001	5	373.241	82.619	938.761	1085.410	3320.748	296.007	3791.662	1029.214	4433.690	70.607
1279	1.303	0.0001	5	367.245	85.207	944.209	1073.548	3324.311	286.760	3789.838	1041.610	4429.921	73.274
1280	1.304	0.0001	5	360.372	88.137	949.963	1066.941	3328.555	272.338	3786.773	1069.597	4426.680	76.234
1281	1.305	0.0001	5	353.194	91.236	955.121	1066.619	3332.750	254.109	3783.776	1111.143	4424.016	79.234
1282	1.306	0.0001	5	346.344	94.272	958.968	1073.334	3336.394	235.175	3781.260	1161.712	4421.928	81.936
1283	1.307	0.0001	5	340.327	96.979	961.231	1086.824	3339.353	218.714	3778.824	1215.542	4420.282	84.064
1284	1.308	0.0001	5	335.793	98.936	962.173	1103.668	3341.571	207.707	3775.955	1262.565	4418.958	85.417
1285	1.309	0.0001	5	331.522	100.475	962.788	1126.941	3343.933	200.535	3770.564	1311.597	4417.297	86.418
1286	1.310	0.0001	5	328.541	101.140	963.840	1148.519	3346.125	199.914	3762.677	1346.432	4415.517	86.948
1287	1.311	0.0001	5	326.228	101.336	966.002	1168.413	3348.665	204.618	3751.059	1370.808	4413.428	87.300
1288	1.312	0.0001	5	324.555	101.416	968.949	1184.329	3351.544	212.774	3736.791	1385.099	4411.275	87.546
1289	1.313	0.0001	5	322.971	101.803	973.015	1200.534	3355.995	225.645	3715.038	1395.806	4408.411	87.758
1290	1.314	0.00008	5	321.867	102.745	976.039	1212.403	3361.082	237.611	3691.604	1403.696	4405.524	87.829
1291	1.315	0.00008	5	321.070	104.436	976.951	1220.506	3366.748	246.115	3666.884	1413.971	4402.345	87.751
1292	1.316	0.00008	5	320.590	106.686	974.902	1223.159	3371.682	248.029	3645.729	1428.207	4399.151	87.554
1293	1.317	0.00008	5	320.266	110.266	968.163	1218.011	3376.265	241.315	3625.133	1453.546	4394.896	87.191
1294	1.318	0.00008	5	320.112	114.304	958.365	1203.027	3378.656	227.588	3612.612	1485.096	4390.618	86.767
1295	1.319	0.00008	5	319.943	118.914	946.767	1176.517	3379.538	209.531	3606.177	1524.030	4386.053	86.291
1296	1.320	0.00008	5	319.637	123.447	936.626	1142.045	3379.595	192.096	3604.433	1565.043	4381.711	85.875
1297	1.321	0.00008	5	318.961	129.134	927.297	1089.528	3379.502	172.834	3604.971	1619.937	4376.277	85.542
1298	1.322	0.00008	5	318.096	134.502	922.605	1035.302	3379.825	158.703	3604.881	1673.702	4371.045	85.581
1299	1.323	0.00008	5	317.247	140.053	921.445	981.893	3380.897	149.026	3600.766	1728.098	4365.546	86.121
1300	1.324	0.00008	5	316.826	145.341	922.730	939.913	3382.691	144.385	3590.771	1776.259	4360.362	87.103
1301	1.325	0.00008	5	317.241	152.044	926.462	904.423	3385.976	143.647	3568.195	1833.461	4354.122	88.763
1302	1.326	0.00008	5	318.868	158.433	932.145	891.091	3390.009	146.376	3536.041	1892.933	4348.712	90.375
1303	1.327	0.00008	5	321.864	164.807	941.321	900.027	3394.658	150.315	3492.775	1974.693	4343.961	91.566
1304	1.328	0.00008	5	325.725	170.294	954.790	930.265	3398.758	152.987	3444.215	2086.584	4340.439	91.958
1305	1.329	0.00008	5	331.456	176.024	981.434	996.863	3375.236	2295.572	3402.315	153.366	4337.327	91.585
1306	1.330	0.00008	5	337.200	179.957	1021.015	1085.282	3303.353	2586.519	3403.364	151.173	4335.479	91.011
1307	1.331	0.00008	5	342.718	182.191	1080.448	1187.560	3227.919	3000.189	3402.260	148.159	4334.407	91.147
1308	1.332	0.00008	5	347.043	182.556	1152.503	1267.386	3168.614	3497.459	3400.101	146.225	4333.905	92.638
1309	1.333	0.00008	5	351.068	180.897	1246.657	1304.424	3147.804	4193.832	3397.400	146.142	4333.642	96.773
1310	1.334	0.00008	5	353.729	177.477	1313.589	1275.961	3213.422	4696.380	3395.895	148.435	4333.529	102.957
1311	1.335	0.00008	5	355.656	172.308	1350.125	1220.686	3326.432	4771.310	3395.830	152.505	4333.401	111.189
1312	1.336	0.00008	5	356.913	166.100	1362.158	1169.333	3396.969	157.063	3411.092	4483.004	4333.192	120.044
1313	1.337	0.00007	5	357.817	156.876	1359.731	1116.151	3399.331	162.726	3470.585	3952.356	4332.778	131.720
1314	1.338	0.00007	5	358.011	147.163	1347.627	1076.243	3401.721	167.538	3496.218	3449.486	4332.291	142.658
1315	1.339	0.00007	5	357.575	137.083	1329.654	1042.182	3403.558	171.882	3502.749	2981.557	4331.870	152.792
1316	1.340	0.00007	5	356.686	128.507	1310.156	1012.271	3404.260	175.759	3494.981	2595.102	4331.734	160.031
1317	1.341	0.00007	5	355.144	120.109	1285.109	970.117	3403.717	181.143	3470.285	2185.062	4331.944	163.902
1318	1.342	0.00007	5	353.422	115.011	1262.854	917.834	3402.347	187.561	3435.024	1866.330	4332.054	160.697
1319	1.343	0.00007	5	351.534	112.706	1242.962	849.414	3390.742	1606.535	3401.054	195.649	4331.224	150.665
1320	1.344	0.00007	5	349.771	112.959	1227.293	777.198	3345.745	1421.726	3400.666	203.856	4329.122	137.489
1321	1.345	0.00007	5	347.705	115.911	1210.906	688.372	3290.470	1260.550	3401.225	213.157	4324.967	120.487
1322	1.346	0.00007	5	345.938	120.851	1197.383	613.426	3243.845	1163.565	3401.394	220.459	4320.081	106.868
1323	1.347	0.00005	5	344.340	127.663	1184.784	548.646	3206.242	1104.763	3399.314	228.424	4314.494	96.669
1324	1.348	0.00005	5	343.068	135.236	1174.054	498.948	3183.103	1075.164	3394.289	238.927	4308.739	90.603
1325	1.349	0.00005	5	341.838	145.643	1162.373	449.958	3171.683	1060.221	3383.307	257.568	4300.561	86.942
1326	1.350	0.00005	5	341.099	155.994	1153.306	414.492	3177.055	1062.108	3367.775	278.248	4291.395	86.273
1327	1.351	0.00005	5	340.842	166.718	1146.279	387.675	3193.896	1079.906	3347.602	294.958	4280.484	87.109
1328	1.352	0.00005	5	341.072	176.490	1141.864	370.334	3211.908	1110.647	3328.350	299.690	4269.398	88.182
1329	1.353	0.00005	5	341.847	187.656	1139.001	356.791	3226.294	1156.469	3309.694	292.186	4255.662	88.835
1330	1.354	0.00005	5	342.792	196.418	1138.479	348.653	3228.548	1190.187	3298.688	280.734	4243.815	88.453
1331	1.355	0.00005	5	343.588	202.600	1139.749	341.187	3222.634	1202.083	3292.042	272.057	4233.529	87.356
1332	1.356	0.00005	5	343.846	205.122	1142.423	332.063	3213.618	1187.893	3288.245	269.618	4225.824	86.147
1333	1.357	0.00005	5	343.220	203.711	1147.734	314.854	3201.421	1137.533	3285.412	275.328	4218.596	84.934
1334	1.358	0.00005	5	341.603	198.468	1154.850	290.932	3189.552	1062.097	3284.423	289.704	4213.655	84.382
1335	1.359	0.00005	5	339.069	190.665	1163.983	258.999	3175.004	965.052	3286.126	312.909	4210.055	84.567
1336	1.360	0.00005	5	336.202	182.978	1173.301	225.096	3155.781	867.193	3292.339	339.250	4207.775	85.500
1337	1.361	0.00005	5	332.472	175.330	1184.144	183.491	3121.184	759.736	3308.223	363.895	4206.146	87.777
1338	1.362	0.00005	5	329.197	171.427	1192.364	149.540	3084.458	691.979	3324.642	364.690	4205.648	91.204
1339	1.363	0.00005	5	326.413	170.980	1198.403	122.400	3051.893	650.634	3334.981	350.277	4206.073	96.058
1340	1.364	0.00005	5	324.506	173.191	1202.253	103.880	3027.643	626.369	3338.681	333.030	4207.219	101.597
1341	1.365	0.00005	5	323.099	178.215	1205.579	88.273	3004.302	605.710	3338.016	312.723	4209.383	109.054
1342	1.366	0.00005	5	322.613	184.364	1208.170	79.017	2986.724	590.990	3334.016	295.966	4211.811	115.745
1343	1.367	0.00005	5	322.774	191.782	1210.980	73.657	2970.902	579.869	3327.430	280.721	4214.239	121.420
1344	1.368	0.00005	5	323.376	199.877	1214.159	71.777	2956.624	574.446	3319.401	267.552	4216.103	125.374
1345	1.369	0.00005	5	324.593	211.845	1219.244	73.240	2938.335	576.442	3307.613	252.165	4217.640	129.005
1346	1.370	0.00005	5	326.186	225.291	1225.591	78.491	2920.105	587.798	3295.594	238.898	4218.394	132.419
1347	1.371	0.00005	5	328.310	240.802	1234.102	88.170	2901.374	607.827	3283.536	227.886	4218.797	137.595
1348	1.372	0.00005	5	330.806	255.696	1244.300	101.585	2885.838	632.065	3273.300	221.604	4219.212	145.437
1349	1.373	0.00005	5	334.669	272.177	1260.614	124.488	2872.770	666.150	3262.268	221.197	4220.286	160.972
1350	1.374	0.00005	5	339.124	282.903	1280.578	152.398	2870.086	699.339	3252.957	229.894	4222.296	183.224
1351	1.375	0.00005	5	344.285	286.619	1306.325	185.923	2880.090	730.718	3243.349	249.834	4225.697	215.411
1352	1.376	0.00005	5	349.122	282.907	1335.044	218.797	2903.440	753.110	3232.819	281.171	4230.279	255.563
1353	1.377	0.00005	5	354.232	270.968	1375.166	256.280	2955.753	761.161	3213.605	345.216	4237.905	321.659
1354	1.378	0.00005	5	357.604	256.261	1414.882	284.119	3047.599	717.445	3171.619	461.203	4246.959	405.949
1355	1.379	0.00005	5	359.578	241.455	1454.311	303.223	3050.534	412.123	3241.377	841.675	4257.515	524.155
1356	1.380	0.00005	5	360.365	229.584	1487.871	312.994	3017.501	334.967	3366.261	979.885	4267.409	678.725
1357	1.381	0.00005	5	360.395	217.632	1523.997	316.676	2990.822	277.162	3545.302	1054.272	4280.834	979.362
1358	1.382	0.00005	5	359.763	208.117	1553.009	314.239	2971.304	242.265	3707.747	931.868	4350.683	1486.212
1359	1.383	0.00005	5	358.553	199.153	1578.516	308.223	2954.561	219.476	3771.048	757.247	4617.753	2084.865
1360	1.384	0.00005	5	356.918	191.215	1599.120	301.301	2941.316	207.100	3794.739	671.823	5153.817	2582.357
1361	1.385	0.00005	4	354.218	182.224	1621.112	293.196	2927.930	201.092	3812.753	627.182	--undefined--	--undefined--
1362	1.386	0.00005	4	350.977	175.120	1638.968	287.640	2918.334	203.147	3823.964	623.496	--undefined--	--undefined--
1363	1.387	0.00005	4	346.897	169.838	1654.746	285.255	2911.655	211.960	3830.669	648.133	--undefined--	--undefined--
1364	1.388	0.00005	4	342.249	167.196	1667.263	286.849	2908.365	225.609	3832.762	692.265	--undefined--	--undefined--
1365	1.389	0.00005	4	334.949	167.389	1679.886	294.853	2907.990	248.607	3830.546	768.680	--undefined--	--undefined--
1366	1.390	0.00005	4	325.916	171.118	1689.135	309.394	2910.535	274.765	3825.494	853.216	--undefined--	--undefined--
1367	1.391	0.00005	4	314.354	177.779	1696.457	331.683	2914.056	302.754	3820.607	934.235	--undefined--	--undefined--
1368	1.392	0.00005	4	301.327	185.743	1702.808	360.766	2915.100	327.194	3819.384	982.959	--undefined--	--undefined--
1369	1.393	0.00005	4	289.443	193.224	1710.132	392.537	2910.240	341.109	3824.005	972.895	--undefined--	--undefined--
1370	1.394	0.00005	4	281.291	200.152	1720.678	420.367	2900.764	340.162	3835.483	910.177	--undefined--	--undefined--
1371	1.395	0.00005	4	277.695	207.414	1734.882	440.959	2894.134	329.064	3855.324	834.410	--undefined--	--undefined--
1372	1.396	0.00005	4	277.626	214.392	1751.543	459.468	2897.409	318.556	3885.617	778.962	--undefined--	--undefined--
1373	1.397	0.00005	4	279.180	219.511	1769.942	482.718	2911.627	314.943	3926.893	750.928	--undefined--	--undefined--
1374	1.398	0.00005	4	280.520	221.901	1789.322	512.771	2933.135	318.404	3977.027	743.446	--undefined--	--undefined--
1375	1.399	0.00005	4	280.248	221.190	1808.215	549.085	2957.030	327.457	4032.699	749.602	--undefined--	--undefined--
1376	1.400	0.00005	4	277.531	216.998	1825.015	590.604	2978.862	341.379	4090.870	765.726	--undefined--	--undefined--
1377	1.401	0.00004	4	272.399	209.162	1838.589	633.955	2994.839	360.187	4149.025	789.031	--undefined--	--undefined--
1378	1.402	0.00004	4	265.973	198.318	1848.522	669.572	3001.854	383.932	4204.728	814.417	--undefined--	--undefined--
1379	1.403	0.00004	4	260.151	186.337	1855.155	681.619	2997.923	412.131	4254.933	832.403	--undefined--	--undefined--
1380	1.404	0.00004	4	256.779	175.787	1859.173	660.235	2982.585	444.245	4295.354	831.126	--undefined--	--undefined--
1381	1.405	0.00004	4	256.941	168.452	1860.946	616.131	2956.855	481.271	4321.599	803.143	--undefined--	--undefined--
1382	1.406	0.00001	4	260.746	164.265	1860.753	572.471	2923.417	526.416	4332.886	750.648	--undefined--	--undefined--
1383	1.407	0.00001	4	267.488	161.625	1859.216	546.345	2886.497	584.200	4333.931	685.856	--undefined--	--undefined--
1384	1.408	0.00001	4	276.104	158.807	1856.892	543.911	2850.119	658.962	4331.288	625.544	--undefined--	--undefined--
1385	1.409	0.00001	4	285.723	155.208	1853.567	564.317	2815.791	752.091	4328.582	581.361	--undefined--	--undefined--
1386	1.410	0.00001	4	295.887	151.374	1847.838	602.993	2781.995	858.128	4325.871	555.550	--undefined--	--undefined--
1387	1.411	0.000006	4	306.385	148.186	1837.288	652.209	2746.368	961.782	4321.560	543.737	--undefined--	--undefined--
1388	1.412	0.000002	4	317.056	146.236	1820.052	699.592	2710.424	1039.383	4314.006	538.773	--undefined--	--undefined--
1389	1.413	0.000002	4	327.671	145.649	1798.482	729.735	2683.633	1072.476	4302.523	533.110	--undefined--	--undefined--
1390	1.414	0.000002	4	337.855	146.126	1780.369	735.032	2677.128	1066.515	4288.130	520.847	--undefined--	--undefined--
1391	1.415	0.000002	4	346.997	147.012	1772.737	721.752	2692.379	1042.281	4273.484	499.839	--undefined--	--undefined--
1392	1.416	0.000002	4	354.221	147.344	1777.436	700.334	2723.465	1014.641	4261.549	472.067	--undefined--	--undefined--
1393	1.417	0.000002	4	358.534	145.939	1793.049	677.281	2764.434	989.117	4254.195	441.428	--undefined--	--undefined--
1394	1.418	0.000002	4	359.244	141.587	1817.299	654.797	2811.601	965.894	4251.855	411.262	--undefined--	--undefined--
1395	1.419	0.000002	4	356.492	133.511	1847.964	632.841	2862.845	942.451	4254.007	383.445	--undefined--	--undefined--
1396	1.420	0.000002	4	351.422	122.055	1883.202	611.016	2916.581	915.488	4259.781	358.752	--undefined--	--undefined--
1397	1.421	0.000002	4	345.698	108.972	1921.685	589.539	2971.137	882.570	4268.354	337.529	--undefined--	--undefined--
1398	1.422	0.000002	4	340.758	96.741	1962.425	569.220	3024.319	843.182	4279.055	320.242	--undefined--	--undefined--
1399	1.423	0.000002	4	337.418	87.476	2004.347	551.629	3073.141	799.667	4291.318	307.849	--undefined--	--undefined--
1400	1.424	0.000002	4	335.950	82.324	2046.287	540.519	3114.049	758.226	4304.592	302.131	--undefined--	--undefined--
1401	1.425	0.000001	4	336.330	81.383	2087.953	543.751	3143.368	729.176	4318.204	305.970	--undefined--	--undefined--
1402	1.426	0.000001	4	338.279	83.656	2131.336	574.104	3156.973	726.224	4330.880	323.132	--undefined--	--undefined--
1403	1.427	0.000001	4	340.857	87.342	2181.859	649.217	3148.237	765.583	4339.672	356.574	--undefined--	--undefined--
1404	1.428	0.000001	4	342.203	91.367	2250.825	791.602	3102.889	862.981	4339.122	403.630	--undefined--	--undefined--
1405	1.429	0.000001	4	340.610	96.192	2367.393	1034.740	2983.437	1010.232	4324.251	449.110	--undefined--	--undefined--
1406	1.430	0.000001	4	335.859	101.782	2552.871	1681.398	2754.274	862.278	4298.984	470.147	--undefined--	--undefined--
1407	1.431	0.000001	4	329.279	106.625	2484.750	2322.885	2739.321	652.596	4276.156	462.656	--undefined--	--undefined--
1408	1.432	0.000001	4	322.652	109.382	2405.651	2531.352	2743.304	600.851	4263.038	446.032	--undefined--	--undefined--
1409	1.433	0.000001	4	317.473	109.871	2376.015	2418.863	2752.308	614.330	4258.805	438.652	--undefined--	--undefined--
1410	1.434	0.000001	4	312.464	108.421	2389.560	2094.484	2772.215	687.935	4260.985	449.610	--undefined--	--undefined--
1411	1.435	0.0000008	4	308.764	105.946	2419.129	1729.525	2808.350	814.192	4268.843	482.294	--undefined--	--undefined--
1412	1.436	0.0000006	4	305.740	103.287	2419.617	1355.750	2893.507	977.664	4281.912	536.928	--undefined--	--undefined--
1413	1.437	0.0000004	4	303.620	101.363	2393.366	1112.226	3008.866	1052.818	4298.138	603.389	--undefined--	--undefined--
1414	1.438	0.0000004	4	302.115	100.209	2379.048	918.448	3137.059	1055.908	4323.414	696.770	--undefined--	--undefined--
1415	1.439	0.0000004	4	302.054	100.372	2381.207	781.518	3235.082	1009.964	4353.824	781.596	--undefined--	--undefined--
1416	1.440	0.0000004	4	303.480	101.437	2389.626	665.496	3308.412	928.455	4392.816	844.645	--undefined--	--undefined--
1417	1.441	0.0000002	4	305.991	102.831	2398.073	575.042	3350.027	838.021	4433.428	866.868	--undefined--	--undefined--
1418	1.442	0.0000002	4	309.941	104.807	2406.026	487.005	3372.378	732.252	4480.434	847.971	--undefined--	--undefined--
1419	1.443	0.0000002	4	313.520	107.133	2409.635	428.522	3374.835	653.019	4515.110	804.893	--undefined--	--undefined--
1420	1.444	0.0000002	4	316.011	110.360	2408.756	392.565	3367.586	597.463	4539.018	757.695	--undefined--	--undefined--
1421	1.445	0.0000002	4	316.578	114.158	2403.652	379.029	3357.208	568.880	4551.042	721.509	--undefined--	--undefined--
1422	1.446	0.0000002	4	314.581	119.092	2392.150	384.948	3344.874	560.992	4553.484	690.717	--undefined--	--undefined--
1423	1.447	0.0000001	4	310.367	122.320	2376.957	408.576	3337.753	576.146	4545.087	673.546	--undefined--	--undefined--
1424	1.448	0.0000001	4	304.991	122.274	2358.124	444.973	3337.880	608.061	4528.511	664.671	--undefined--	--undefined--
1425	1.449	0.0000001	4	300.584	118.692	2338.792	483.775	3345.853	646.370	4508.817	662.632	--undefined--	--undefined--
1426	1.450	0.0000001	4	297.378	111.445	2314.927	529.802	3365.022	696.784	4482.542	667.490	--undefined--	--undefined--
1427	1.451	0.0000001	4	296.484	104.388	2295.845	566.244	3388.615	743.199	4457.670	679.200	--undefined--	--undefined--
1428	1.452	0.0000001	4	296.557	98.562	2283.798	596.411	3412.504	791.807	4431.906	697.757	--undefined--	--undefined--
1429	1.453	0.0000001	4	296.416	94.777	2281.902	620.574	3429.784	844.154	4406.466	719.263	--undefined--	--undefined--
1430	1.454	0.0000001	4	294.870	91.893	2291.936	647.997	3440.820	926.159	4372.004	746.029	--undefined--	--undefined--
1431	1.455	0.0000001	4	291.580	90.075	2310.334	670.875	3440.465	1022.429	4337.515	763.730	--undefined--	--undefined--
1432	1.456	0.0000001	4	286.588	88.071	2332.615	687.887	3432.638	1131.221	4303.918	768.324	--undefined--	--undefined--
1433	1.457	0.0000001	4	281.129	85.498	2352.276	694.721	3425.935	1228.072	4277.314	761.757	--undefined--	--undefined--
1434	1.458	0.0000001	4	274.420	81.402	2372.821	689.882	3432.303	1327.355	4250.687	749.198	--undefined--	--undefined--
1435	1.459	0.0000001	4	268.915	77.222	2390.033	675.305	3460.487	1396.421	4228.806	742.419	--undefined--	--undefined--
1436	1.460	0.0000001	4	264.402	73.316	2409.072	657.310	3505.381	1445.834	4207.274	744.846	--undefined--	--undefined--
1437	1.461	0.0000001	4	261.143	70.355	2430.450	643.666	3548.733	1484.463	4187.349	754.469	--undefined--	--undefined--
1438	1.462	0.00000009	4	258.051	67.602	2461.412	636.431	3588.012	1553.103	4162.435	769.531	--undefined--	--undefined--
1439	1.463	0.00000006	4	255.767	65.571	2491.700	644.365	3598.038	1675.642	4139.032	777.611	--undefined--	--undefined--
1440	1.464	0.00000006	4	253.961	63.617	2520.252	675.846	3561.934	1895.957	4118.549	772.746	--undefined--	--undefined--
1441	1.465	0.00000006	4	252.943	61.849	2545.777	737.964	3449.824	2220.175	4106.636	757.885	--undefined--	--undefined--
1442	1.466	0.00000005	4	253.005	60.617	2596.297	876.039	3025.466	2840.267	4102.950	732.670	--undefined--	--undefined--
1443	1.467	0.00000009	4	254.744	62.299	2038.444	2236.965	2714.273	958.762	4108.422	702.885	--undefined--	--undefined--
1444	1.468	0.0000003	4	258.414	69.510	1848.001	1425.775	2794.367	877.593	4119.291	663.111	--undefined--	--undefined--
1445	1.469	0.000001	4	263.697	83.957	1806.666	1103.428	2823.639	815.929	4130.824	618.671	--undefined--	--undefined--
1446	1.470	0.0004	4	272.913	116.441	1795.802	913.823	2841.487	777.743	4144.089	562.960	--undefined--	--undefined--
1447	1.471	0.0004	4	284.343	166.135	1801.131	838.466	2855.014	768.597	4155.175	517.784	--undefined--	--undefined--
1448	1.472	0.0004	4	298.264	237.623	1814.810	815.562	2870.847	775.450	4165.539	481.457	--undefined--	--undefined--
1449	1.473	0.0004	4	312.341	317.803	1831.932	818.821	2887.687	788.276	4174.289	455.623	--undefined--	--undefined--
1450	1.474	0.0005	4	329.922	417.201	1853.693	831.273	2908.228	803.233	4183.505	432.247	--undefined--	--undefined--
1451	1.475	0.0005	4	344.923	489.429	1868.431	837.535	2923.504	813.034	4190.747	417.759	--undefined--	--undefined--
1452	1.476	0.0005	4	355.633	526.275	1873.110	835.296	2933.127	822.479	4198.224	411.662	--undefined--	--undefined--
1453	1.477	0.0005	4	359.475	525.549	1867.829	826.399	2937.937	838.311	4208.934	418.708	--undefined--	--undefined--
1454	1.478	0.0005	4	357.269	494.696	1858.937	802.378	2951.716	877.945	4239.749	456.018	--undefined--	--undefined--
1455	1.479	0.0005	4	351.506	466.767	1876.676	753.423	3017.987	918.804	4306.222	509.228	--undefined--	--undefined--
1456	1.480	0.0005	4	344.888	455.746	1923.647	664.614	3142.847	876.399	4394.439	530.318	--undefined--	--undefined--
1457	1.481	0.0006	4	340.024	478.239	1966.049	566.373	3213.427	773.352	4438.901	540.089	--undefined--	--undefined--
1458	1.482	0.0009	4	337.461	618.404	1999.533	488.634	3239.805	691.872	4446.005	582.008	--undefined--	--undefined--
1459	1.483	0.0009	4	367.227	829.593	2009.672	471.160	3250.192	677.451	4445.867	625.728	--undefined--	--undefined--
1460	1.484	0.0009	5	495.329	923.326	2015.526	459.019	3256.315	661.983	4438.089	649.229	5197.082	1150.039
1461	1.485	0.0009	5	630.718	864.611	2024.585	435.888	3259.559	626.321	4418.579	643.636	5123.101	1002.100
1462	1.486	0.002	5	729.743	763.914	2034.536	406.098	3263.310	581.377	4396.485	618.047	5088.983	866.965
1463	1.487	0.002	5	770.440	703.924	2039.512	385.806	3267.174	552.100	4384.429	596.367	5077.794	792.372
1464	1.488	0.002	5	785.974	670.703	2041.370	371.969	3271.206	532.902	4377.889	580.884	5073.576	744.282
1465	1.489	0.002	5	789.238	653.992	2041.536	363.018	3274.913	520.844	4374.555	570.457	5072.581	710.974
1466	1.490	0.002	5	786.436	643.364	2040.809	355.111	3279.409	510.408	4372.295	560.143	5073.459	675.569
1467	1.491	0.002	5	780.593	639.373	2039.780	349.836	3283.652	503.580	4371.166	551.327	5075.601	643.686
1468	1.492	0.002	5	773.224	639.896	2038.729	346.299	3288.150	499.288	4370.564	542.257	5078.654	611.019
1469	1.493	0.002	5	765.327	645.397	2037.931	344.753	3293.121	498.342	4370.237	532.535	5082.376	577.901
1470	1.494	0.002	5	757.925	657.539	2037.742	345.773	3298.882	502.679	4369.872	522.346	5086.577	546.009
1471	1.495	0.002	5	752.606	679.284	2038.701	350.226	3305.879	516.082	4368.936	512.947	5091.080	518.416
1472	1.496	0.002	5	752.361	714.749	2041.632	359.114	3314.759	545.401	4366.527	507.387	5095.707	499.822
1473	1.497	0.002	5	762.973	767.166	2047.669	373.066	3326.711	601.980	4361.322	510.983	5100.340	496.801
1474	1.498	0.002	5	794.327	831.002	2058.250	391.153	3344.738	701.032	4351.790	530.276	5105.186	517.205
1475	1.499	0.002	5	856.316	877.115	2075.030	408.487	3376.616	851.239	4336.941	568.945	5111.347	566.946
1476	1.500	0.002	5	939.501	860.555	2097.447	413.966	3434.392	1024.783	4317.737	622.937	5121.104	643.041
1477	1.501	0.002	5	1007.251	786.740	2117.692	400.893	3515.800	1147.965	4297.032	685.338	5135.391	727.799
1478	1.502	0.002	5	1037.424	714.369	2127.405	381.118	3597.083	1183.805	4274.445	760.894	5147.304	791.304
1479	1.503	0.002	5	1035.827	672.954	2126.413	367.216	3666.816	1159.853	4241.652	865.598	5142.534	799.865
1480	1.504	0.002	5	1013.621	657.487	2117.808	360.530	3732.307	1093.639	4186.006	1015.980	5119.331	739.423
1481	1.505	0.002	5	978.356	655.998	2103.941	357.362	3790.685	943.814	4116.510	1246.946	5094.398	636.911
1482	1.506	0.002	5	934.547	658.832	2086.168	353.576	3791.735	754.013	4098.540	1495.980	5077.842	531.290
1483	1.507	0.002	5	885.377	658.529	2065.310	345.657	3769.776	617.263	4109.398	1659.761	5068.682	441.169
1484	1.508	0.002	5	833.878	649.267	2042.065	331.081	3747.256	512.720	4128.234	1751.229	5063.924	369.038
1485	1.509	0.002	5	783.286	627.753	2017.295	308.893	3727.761	429.263	4145.947	1772.445	5061.655	312.284
1486	1.510	0.002	5	736.656	594.502	1992.142	280.165	3711.592	363.466	4154.824	1721.605	5060.905	267.879
1487	1.511	0.002	5	696.189	554.016	1967.984	247.817	3697.879	314.514	4151.540	1603.535	5061.184	233.727
1488	1.512	0.002	5	662.925	513.608	1946.310	215.733	3685.024	282.017	4139.860	1433.254	5062.202	209.116
1489	1.513	0.002	5	636.977	481.877	1928.561	187.690	3670.943	264.385	4129.851	1235.280	5063.832	195.027
1490	1.514	0.002	5	617.993	467.875	1915.931	166.659	3653.887	257.197	4132.947	1040.072	5066.265	194.150
1491	1.515	0.002	5	605.441	480.959	1909.139	154.525	3634.267	254.399	4154.263	874.772	5070.131	210.219
1492	1.516	0.002	5	598.602	530.904	1908.180	152.007	3614.403	254.223	4189.095	750.306	5076.272	246.416
1493	1.517	0.002	5	596.334	628.077	1912.084	158.680	3595.200	259.114	4228.247	661.575	5085.221	303.163
1494	1.518	0.002	5	596.914	783.051	1918.750	172.965	3576.004	268.664	4264.160	600.412	5096.746	377.181
1495	1.519	0.002	5	598.910	1004.213	1925.206	192.080	3557.132	277.420	4293.233	563.414	5109.861	464.258
1496	1.520	0.002	5	604.404	1292.851	1928.629	212.667	3540.718	279.174	4315.590	551.247	5123.600	563.909
1497	1.521	0.002	5	621.530	1641.157	1927.391	232.459	3528.850	272.648	4333.414	565.375	5137.885	680.450
1498	1.522	0.002	5	646.856	2055.127	1920.753	250.561	3521.577	262.356	4349.661	608.650	5153.500	822.417
1499	1.523	0.002	5	588.552	2645.848	1908.298	264.006	3517.342	254.923	4369.637	690.985	5173.610	1012.937
1500	1.524	0.002	4	1891.672	266.452	3514.588	255.234	4409.122	833.736	5223.813	1340.692	--undefined--	--undefined--
1501	1.525	0.002	4	1875.382	255.730	3512.377	264.693	4513.779	3750.133	4527.059	1016.740	--undefined--	--undefined--
1502	1.526	0.002	4	1862.489	237.185	3509.747	282.022	3694.563	2159.249	4678.740	982.584	--undefined--	--undefined--
1503	1.527	0.002	4	1852.359	216.467	3504.548	304.956	3552.248	1587.078	4774.197	923.171	--undefined--	--undefined--
1504	1.528	0.002	4	1842.724	196.078	3492.279	329.981	3531.404	1286.497	4853.139	873.482	--undefined--	--undefined--
1505	1.529	0.002	4	1831.937	176.746	3467.210	344.427	3577.474	1130.957	4914.163	848.781	--undefined--	--undefined--
1506	1.530	0.002	4	1820.141	158.788	3435.391	325.359	3676.366	1070.624	4973.320	871.530	--undefined--	--undefined--
1507	1.531	0.002	4	1808.943	142.472	3412.083	283.682	3802.085	1003.628	5048.535	910.644	--undefined--	--undefined--
1508	1.532	0.002	4	1800.042	127.604	3398.673	242.972	3901.763	865.643	5128.095	903.079	--undefined--	--undefined--
1509	1.533	0.002	4	1794.022	113.181	3392.377	211.854	3954.063	724.843	5180.503	835.839	--undefined--	--undefined--
1510	1.534	0.002	4	1790.049	98.439	3391.682	191.730	3979.627	624.063	5199.560	743.326	--undefined--	--undefined--
1511	1.535	0.002	5	417.913	1752.141	1786.783	84.279	3395.608	181.502	3994.599	564.823	5199.833	656.177
1512	1.536	0.002	5	520.746	1457.647	1783.519	72.526	3402.581	178.832	4005.496	540.598	5193.844	589.173
1513	1.537	0.0008	5	549.475	1312.058	1780.206	64.252	3409.788	180.370	4013.585	544.938	5186.798	545.426
1514	1.538	0.0008	5	547.238	1276.351	1776.909	59.416	3413.799	182.192	4017.878	572.157	5179.950	521.970
1515	1.539	0.0008	5	520.761	1333.383	1773.589	57.332	3412.729	181.119	4017.187	618.998	5173.465	514.867
1516	1.540	0.0008	5	458.897	1480.093	1770.154	57.128	3407.802	176.106	4011.203	687.476	5167.544	522.613
1517	1.541	0.0008	5	308.462	1728.788	1766.544	58.062	3402.001	168.179	4000.506	785.060	5162.498	546.670
1518	1.542	0.0008	4	1762.766	59.717	3397.595	158.882	3986.624	922.207	5158.751	590.859	--undefined--	--undefined--
1519	1.543	0.0008	4	1758.879	62.136	3395.061	149.078	3973.219	1109.746	5157.379	662.007	--undefined--	--undefined--
1520	1.544	0.0006	4	1754.947	65.959	3393.396	139.202	3968.926	1353.449	5161.636	771.740	--undefined--	--undefined--
1521	1.545	0.0005	4	1751.005	72.401	3391.049	130.130	3993.386	1628.625	5181.293	935.522	--undefined--	--undefined--
1522	1.546	0.0005	4	1747.202	82.708	3386.844	123.098	4072.810	1781.568	5240.225	1138.730	--undefined--	--undefined--
1523	1.547	0.0005	4	1744.170	96.795	3380.280	118.923	4129.426	1602.549	5311.424	1215.234	--undefined--	--undefined--
1524	1.548	0.0005	4	1742.974	111.501	3371.282	117.771	4103.282	1335.758	5294.835	1111.058	--undefined--	--undefined--
1525	1.549	0.0005	4	1743.938	121.414	3359.906	119.379	4058.005	1131.321	5262.469	976.199	--undefined--	--undefined--
1526	1.550	0.0005	5	387.667	1427.434	1745.837	123.806	3346.385	123.180	4014.589	986.259	5244.395	861.871
1527	1.551	0.0005	5	494.813	1135.587	1747.226	121.056	3331.416	128.471	3975.814	885.131	5237.001	773.871
1528	1.552	0.0003	5	534.649	961.104	1747.579	117.255	3316.191	134.763	3942.861	817.287	5235.048	711.312
1529	1.553	0.0003	5	551.248	867.212	1746.896	115.141	3301.944	142.106	3917.481	776.775	5234.781	673.043
1530	1.554	0.0003	5	557.094	835.691	1745.106	115.770	3289.325	151.199	3900.927	760.706	5233.677	657.713
1531	1.555	0.0003	5	555.320	859.739	1741.869	119.117	3278.077	163.395	3892.381	767.920	5230.042	663.166
1532	1.556	0.0003	5	543.525	941.436	1736.650	124.542	3267.104	180.655	3888.357	798.597	5222.620	686.445
1533	1.557	0.0002	5	511.662	1091.158	1728.965	130.971	3254.766	205.219	3883.444	854.343	5210.059	724.049
1534	1.558	0.0002	5	430.711	1325.778	1718.801	136.810	3239.239	238.511	3871.412	936.877	5190.228	770.902
1535	1.559	0.0002	5	162.456	1659.501	1707.172	140.188	3219.050	278.742	3846.157	1043.392	5160.180	817.635
1536	1.560	0.0002	4	1696.173	140.391	3194.298	318.066	3804.174	1160.202	5118.777	850.299	--undefined--	--undefined--
1537	1.561	0.0002	4	1687.789	138.875	3168.443	344.268	3749.978	1264.989	5070.948	859.595	--undefined--	--undefined--
1538	1.562	0.0002	4	1682.708	137.591	3147.313	350.327	3697.360	1342.687	5026.090	852.350	--undefined--	--undefined--
1539	1.563	0.0002	4	1680.532	137.150	3133.776	339.998	3662.614	1390.530	4991.677	847.833	--undefined--	--undefined--
1540	1.564	0.0001	4	1680.421	137.095	3125.746	321.509	3659.819	1410.298	4971.592	866.518	--undefined--	--undefined--
1541	1.565	0.0001	4	1681.360	136.940	3119.439	301.484	3696.418	1401.750	4968.653	923.192	--undefined--	--undefined--
1542	1.566	0.0001	4	1682.234	136.551	3111.756	284.351	3767.198	1354.624	4986.943	1022.482	--undefined--	--undefined--
1543	1.567	0.00008	4	1681.867	135.919	3100.364	272.865	3852.618	1257.983	5031.584	1154.171	--undefined--	--undefined--
1544	1.568	0.00008	4	1679.161	134.830	3083.450	267.382	3930.270	1122.524	5105.229	1293.687	--undefined--	--undefined--
1545	1.569	0.00008	4	1673.494	132.558	3060.609	265.027	3991.346	975.056	5210.441	1420.919	--undefined--	--undefined--
1546	1.570	0.00008	5	169.216	844.638	1665.189	128.019	3034.759	261.004	4039.491	835.229	5423.180	1543.029
1547	1.571	0.00006	4	235.118	723.794	1655.666	120.880	3012.701	252.489	4079.491	712.157	--undefined--	--undefined--
1548	1.572	0.00006	4	263.699	640.874	1646.897	112.415	3001.913	240.617	4112.494	609.189	--undefined--	--undefined--
1549	1.573	0.00007	4	275.237	591.293	1640.357	104.667	3005.707	227.503	4137.289	525.769	--undefined--	--undefined--
1550	1.574	0.00007	4	277.668	568.724	1636.428	99.149	3021.144	213.672	4153.106	460.407	--undefined--	--undefined--
1551	1.575	0.00007	4	275.431	566.682	1634.669	96.807	3041.131	199.908	4161.061	413.556	--undefined--	--undefined--
1552	1.576	0.00007	4	271.616	580.092	1634.361	98.606	3058.519	189.334	4163.425	387.961	--undefined--	--undefined--
1553	1.577	0.00007	4	269.508	603.450	1634.755	105.712	3068.805	186.191	4162.218	387.835	--undefined--	--undefined--
1554	1.578	0.00007	4	273.953	626.947	1634.977	119.138	3070.286	193.703	4158.478	418.604	--undefined--	--undefined--
1555	1.579	0.00007	4	290.140	636.476	1633.822	139.037	3063.169	213.338	4151.972	488.092	--undefined--	--undefined--
1556	1.580	0.00007	4	318.318	621.863	1629.708	163.805	3048.923	244.873	4140.170	610.527	--undefined--	--undefined--
1557	1.581	0.00007	4	351.962	585.302	1621.089	189.445	3029.972	286.489	4112.444	818.070	--undefined--	--undefined--
1558	1.582	0.00007	4	383.609	538.178	1607.422	210.119	3009.204	334.729	4004.045	1166.824	--undefined--	--undefined--
1559	1.583	0.00007	5	409.351	491.920	1590.036	220.570	2989.200	383.715	3723.295	1271.331	4937.454	1247.188
1560	1.584	0.00007	5	428.588	453.414	1571.746	219.120	2972.845	423.551	3551.428	1085.361	4893.458	936.658
1561	1.585	0.00007	5	442.373	425.204	1555.274	208.220	2965.698	443.972	3472.936	932.700	4876.628	801.050
1562	1.586	0.00007	5	452.206	407.031	1542.044	192.110	2973.287	442.619	3436.597	860.800	4860.998	740.007
1563	1.587	0.00007	5	459.350	397.253	1532.150	174.409	2994.582	421.167	3420.698	863.503	4840.968	717.391
1564	1.588	0.00007	5	464.552	394.087	1524.927	157.382	3021.495	381.718	3419.052	924.631	4814.979	712.322
1565	1.589	0.00007	5	468.035	396.622	1519.482	142.330	3045.045	333.842	3428.411	1018.030	4784.473	709.287
1566	1.590	0.00007	5	469.679	405.279	1514.991	130.078	3062.504	290.479	3439.762	1113.799	4754.059	697.636
1567	1.591	0.00007	5	469.235	421.443	1510.806	121.137	3075.771	257.707	3442.512	1190.840	4730.046	674.508
1568	1.592	0.00007	5	466.471	446.410	1506.467	115.681	3087.155	235.363	3432.672	1240.547	4716.924	645.160
1569	1.593	0.00007	5	461.269	480.124	1501.701	113.554	3098.025	220.685	3414.230	1266.895	4714.835	617.645
1570	1.594	0.00007	5	453.795	520.220	1496.424	114.381	3108.764	210.327	3394.655	1282.045	4720.482	597.281
1571	1.595	0.00007	5	444.778	561.936	1490.731	117.726	3119.019	201.510	3380.489	1298.406	4729.618	585.565
1572	1.596	0.00007	5	435.672	599.206	1484.826	123.249	3128.130	192.743	3375.566	1323.217	4738.794	581.504
1573	1.597	0.00007	5	428.347	626.570	1478.893	130.761	3135.582	183.887	3380.736	1357.732	4745.902	582.708
1574	1.598	0.00007	5	424.285	640.940	1472.962	140.199	3141.197	175.670	3394.138	1399.093	4750.042	585.831
1575	1.599	0.00007	5	423.774	642.498	1466.815	151.507	3145.047	169.115	3411.906	1442.849	4751.166	586.952
1576	1.600	0.00007	5	425.741	634.520	1459.982	164.500	3147.277	165.211	3429.417	1485.088	4749.750	582.385
1577	1.601	0.00007	5	428.348	622.273	1451.846	178.741	3147.993	164.790	3442.959	1523.707	4746.473	569.951
1578	1.602	0.00007	5	429.864	611.363	1441.875	193.503	3147.225	168.512	3451.316	1558.686	4741.874	550.061
1579	1.603	0.00007	5	429.213	606.208	1429.865	207.888	3144.952	176.857	3456.285	1591.663	4736.106	525.727
1580	1.604	0.00007	5	426.021	609.202	1416.010	221.062	3141.210	190.070	3461.509	1624.831	4728.992	501.243
1581	1.605	0.00007	5	420.377	620.598	1400.736	232.351	3136.284	207.983	3470.046	1658.992	4720.427	480.333
1582	1.606	0.00007	5	412.597	638.838	1384.512	241.039	3130.997	229.643	3482.103	1692.034	4710.831	464.976
1583	1.607	0.00007	5	403.147	661.137	1367.918	246.154	3126.849	252.828	3494.576	1720.336	4701.275	455.530
1584	1.608	0.00007	5	392.736	684.145	1351.884	246.663	3125.657	273.939	3503.118	1742.636	4693.143	451.775
1585	1.609	0.00007	5	382.419	704.498	1337.692	242.175	3128.469	289.059	3505.407	1761.217	4687.673	453.831
1586	1.610	0.00007	5	373.366	719.630	1326.468	233.604	3134.578	296.154	3502.504	1777.646	4685.773	462.146
1587	1.611	0.00007	5	366.154	728.928	1318.572	223.097	3141.927	296.627	3496.740	1788.117	4688.161	476.485
1588	1.612	0.00007	5	360.192	734.067	1313.496	213.136	3148.595	294.500	3488.504	1783.618	4695.474	494.576
1589	1.613	0.00007	5	353.984	737.996	1310.267	205.643	3153.732	294.206	3475.332	1754.167	4708.009	511.391
1590	1.614	0.00007	5	345.896	743.718	1307.877	201.686	3157.425	299.006	3454.312	1694.700	4725.090	520.405
1591	1.615	0.00007	5	334.795	753.664	1305.486	201.668	3160.188	310.307	3425.869	1609.843	4744.684	517.358
1592	1.616	0.00007	5	320.328	769.294	1302.448	205.590	3162.558	327.207	3394.965	1513.792	4764.185	503.691
1593	1.617	0.00007	5	303.078	790.469	1298.255	213.132	3164.868	346.060	3368.466	1425.067	4781.856	485.764
1594	1.618	0.00007	5	284.846	814.774	1292.524	223.536	3167.123	360.889	3352.087	1359.836	4797.436	470.979
1595	1.619	0.00007	5	268.988	837.417	1285.067	235.300	3169.015	365.902	3349.434	1325.799	4811.704	464.867
1596	1.620	0.00007	5	260.081	852.051	1276.071	245.811	3170.161	359.385	3362.189	1317.396	4825.782	470.446
1597	1.621	0.00007	5	262.022	852.499	1266.349	251.435	3170.330	344.784	3390.066	1316.724	4840.612	488.685
1598	1.622	0.00007	5	275.072	835.454	1257.357	248.798	3169.445	327.289	3430.570	1303.925	4856.490	519.175
1599	1.623	0.00004	5	294.913	803.518	1250.582	237.005	3167.657	310.045	3479.684	1271.835	4872.493	561.141
1600	1.624	0.00004	5	315.408	765.555	1246.627	218.608	3165.616	293.272	3534.455	1231.740	4886.019	614.887
1601	1.625	0.00004	5	331.958	732.531	1244.987	197.879	3164.443	275.823	3595.702	1203.691	4892.930	682.700
1602	1.626	0.00004	5	342.415	712.603	1244.625	178.253	3165.106	257.044	3668.162	1202.238	4888.172	768.143
1603	1.627	0.00004	5	346.269	709.317	1244.584	161.264	3167.816	237.428	3758.746	1229.620	4866.280	874.940
1604	1.628	0.00004	5	343.800	722.488	1244.227	147.021	3172.071	218.090	3876.244	1275.542	4821.205	1009.348
1605	1.629	0.00004	5	335.752	749.797	1243.242	135.140	3177.144	199.994	4038.171	1308.990	4742.771	1197.756
1606	1.630	0.00004	5	323.498	787.786	1241.563	125.332	3182.456	183.613	4265.458	1127.428	4631.371	1649.812
1607	1.631	0.00004	5	309.737	831.774	1239.273	117.548	3187.654	169.105	4311.641	784.924	4797.008	2341.638
1608	1.632	0.00004	4	299.525	875.222	1236.519	111.880	3192.551	156.657	4315.065	607.494	--undefined--	--undefined--
1609	1.633	0.00004	4	300.178	909.895	1233.456	108.412	3197.061	146.680	4315.713	490.756	--undefined--	--undefined--
1610	1.634	0.00004	4	317.591	927.886	1230.221	107.067	3201.160	139.812	4316.853	405.531	--undefined--	--undefined--
1611	1.635	0.00004	4	350.958	924.453	1226.924	107.479	3204.862	136.781	4318.939	340.870	--undefined--	--undefined--
1612	1.636	0.00004	4	392.932	899.060	1223.621	108.950	3208.179	138.156	4321.395	292.182	--undefined--	--undefined--
1613	1.637	0.00004	4	434.621	854.406	1220.270	110.582	3211.054	143.970	4323.298	257.168	--undefined--	--undefined--
1614	1.638	0.00004	4	469.369	795.727	1216.702	111.582	3213.269	153.229	4323.912	233.967	--undefined--	--undefined--
1615	1.639	0.00004	4	494.085	730.004	1212.651	111.571	3214.387	163.688	4322.949	220.569	--undefined--	--undefined--
1616	1.640	0.00004	4	508.737	663.926	1207.848	110.684	3213.855	172.409	4320.537	215.018	--undefined--	--undefined--
1617	1.641	0.00004	4	514.848	602.387	1202.100	109.444	3211.361	176.959	4317.086	215.871	--undefined--	--undefined--
1618	1.642	0.00004	4	514.305	548.540	1195.365	108.542	3207.305	176.144	4313.171	222.575	--undefined--	--undefined--
1619	1.643	0.00004	4	508.904	504.498	1187.836	108.663	3203.099	169.779	4309.388	235.768	--undefined--	--undefined--
1620	1.644	0.00004	4	500.252	471.732	1179.992	110.328	3200.931	158.454	4306.052	257.578	--undefined--	--undefined--
1621	1.645	0.00004	4	489.720	450.708	1172.561	113.620	3202.566	143.923	4302.734	291.777	--undefined--	--undefined--
1622	1.646	0.00004	4	478.366	440.079	1166.289	117.745	3207.847	129.097	4297.911	343.377	--undefined--	--undefined--
1623	1.647	0.00004	4	466.932	436.687	1161.582	120.895	3214.760	116.802	4288.990	417.798	--undefined--	--undefined--
1624	1.648	0.00004	4	455.894	436.931	1158.289	121.027	3221.054	108.543	4272.290	520.215	--undefined--	--undefined--
1625	1.649	0.00004	4	445.487	438.307	1155.884	117.143	3225.400	104.463	4242.056	654.766	--undefined--	--undefined--
1626	1.650	0.00004	4	435.685	439.850	1153.905	109.803	3227.373	104.019	4187.607	820.062	--undefined--	--undefined--
1627	1.651	0.00004	4	426.255	441.573	1152.166	100.487	3227.032	106.549	4092.900	989.350	--undefined--	--undefined--
1628	1.652	0.00004	4	416.991	443.587	1150.679	90.742	3224.681	111.511	3960.444	1095.337	--undefined--	--undefined--
1629	1.653	0.00004	4	408.066	445.364	1149.494	81.768	3220.846	118.445	3826.057	1112.657	--undefined--	--undefined--
1630	1.654	0.00004	5	400.340	445.617	1148.616	74.424	3216.290	126.655	3714.162	1079.871	5408.897	969.211
1631	1.655	0.00004	5	395.290	443.087	1147.972	69.359	3211.864	134.662	3633.268	1036.085	5340.112	873.127
1632	1.656	0.00004	5	394.383	437.655	1147.405	67.095	3208.139	139.957	3589.516	1008.719	5319.365	825.897
1633	1.657	0.00002	5	398.245	430.159	1146.701	67.911	3205.267	140.452	3587.521	1012.176	5318.048	823.554
1634	1.658	0.00002	5	406.178	421.085	1145.616	71.660	3203.359	136.866	3625.614	1041.723	5335.976	863.510
1635	1.659	0.00002	5	416.215	410.725	1143.892	77.775	3202.604	132.167	3693.046	1076.665	5391.437	940.404
1636	1.660	0.00002	4	425.749	400.680	1141.261	85.577	3202.869	128.722	3772.819	1096.253	--undefined--	--undefined--
1637	1.661	0.00002	4	432.484	393.838	1137.479	94.624	3203.564	127.166	3848.311	1093.400	--undefined--	--undefined--
1638	1.662	0.00002	4	435.034	392.856	1132.352	104.824	3203.814	127.053	3908.947	1074.844	--undefined--	--undefined--
1639	1.663	0.000010	4	432.958	399.027	1125.728	116.313	3202.740	127.628	3951.300	1052.081	--undefined--	--undefined--
1640	1.664	0.000010	4	426.570	412.008	1117.496	129.175	3199.788	128.160	3976.504	1033.744	--undefined--	--undefined--
1641	1.665	0.000010	4	416.731	429.904	1107.675	143.089	3195.018	128.002	3987.417	1023.534	--undefined--	--undefined--
1642	1.666	0.000010	4	404.716	449.338	1096.673	156.971	3189.166	126.689	3987.114	1021.230	--undefined--	--undefined--
1643	1.667	0.000010	4	392.154	465.425	1085.668	168.846	3183.396	124.141	3978.420	1024.203	--undefined--	--undefined--
1644	1.668	0.000010	4	380.963	472.320	1076.741	176.288	3178.848	120.796	3964.063	1028.987	--undefined--	--undefined--
1645	1.669	0.000010	4	372.879	465.583	1072.185	177.536	3176.287	117.527	3947.079	1033.539	--undefined--	--undefined--
1646	1.670	0.000010	4	368.471	445.754	1073.084	172.605	3176.050	115.445	3930.555	1039.710	--undefined--	--undefined--
1647	1.671	0.000010	4	366.811	419.107	1078.516	163.529	3178.212	115.677	3916.507	1053.557	--undefined--	--undefined--
1648	1.672	0.000010	4	366.410	393.884	1086.312	153.484	3182.820	119.118	3905.162	1082.894	--undefined--	--undefined--
1649	1.673	0.000010	4	366.124	376.213	1094.389	145.385	3190.048	126.047	3895.529	1134.627	--undefined--	--undefined--
1650	1.674	0.000010	4	365.257	368.855	1101.428	140.993	3200.120	135.484	3886.900	1213.373	--undefined--	--undefined--
1651	1.675	0.000010	4	363.333	371.893	1106.819	140.885	3212.769	144.561	3881.069	1319.921	--undefined--	--undefined--
1652	1.676	0.000008	4	359.968	383.724	1110.366	144.867	3226.359	149.171	3884.929	1446.654	--undefined--	--undefined--
1653	1.677	0.000008	4	354.876	401.818	1112.076	152.372	3237.923	146.942	3910.879	1569.363	--undefined--	--undefined--
1654	1.678	0.000008	4	347.882	423.400	1112.084	162.736	3245.052	139.470	3970.379	1641.555	--undefined--	--undefined--
1655	1.679	0.000008	4	338.905	446.136	1110.692	175.391	3247.433	130.310	4057.613	1604.599	--undefined--	--undefined--
1656	1.680	0.000008	4	327.944	468.525	1108.449	189.912	3246.215	121.972	4138.370	1443.224	--undefined--	--undefined--
1657	1.681	0.000008	4	315.126	489.717	1106.202	205.830	3242.787	115.248	4187.335	1224.263	--undefined--	--undefined--
1658	1.682	0.000008	4	300.800	508.978	1104.999	222.134	3238.299	109.945	4211.163	1013.054	--undefined--	--undefined--
1659	1.683	0.000008	4	285.537	525.454	1105.714	236.550	3233.685	105.583	4222.158	835.290	--undefined--	--undefined--
1660	1.684	0.000008	4	269.784	539.015	1108.338	245.272	3229.774	101.718	4227.258	696.682	--undefined--	--undefined--
1661	1.685	0.000008	4	253.255	551.723	1111.420	244.464	3227.307	98.067	4229.440	595.454	--undefined--	--undefined--
1662	1.686	0.000008	4	234.770	567.400	1112.793	233.213	3226.814	94.590	4229.734	527.085	--undefined--	--undefined--
1663	1.687	0.000008	4	212.882	588.617	1111.368	214.735	3228.409	91.501	4228.192	486.718	--undefined--	--undefined--
1664	1.688	0.000004	4	186.313	615.063	1107.833	194.312	3231.660	89.197	4224.278	470.531	--undefined--	--undefined--
1665	1.689	0.000004	4	152.819	645.535	1103.626	176.631	3235.688	88.177	4217.148	476.149	--undefined--	--undefined--
1666	1.690	0.000004	4	104.005	680.685	1099.829	164.725	3239.438	88.994	4205.969	502.218	--undefined--	--undefined--
1667	1.691	0.000004	3	1096.895	160.243	3242.018	92.175	4190.358	547.323	--undefined--	--undefined--	--undefined--	--undefined--
1668	1.692	0.000004	3	1094.856	164.107	3242.955	98.087	4170.925	608.553	--undefined--	--undefined--	--undefined--	--undefined--
1669	1.693	0.000004	3	1093.579	177.002	3242.278	106.782	4149.705	680.454	--undefined--	--undefined--	--undefined--	--undefined--
1670	1.694	0.000004	3	1092.936	199.431	3240.431	117.886	4129.894	755.377	--undefined--	--undefined--	--undefined--	--undefined--
1671	1.695	0.000004	3	1092.941	231.119	3238.105	130.675	4114.592	825.607	--undefined--	--undefined--	--undefined--	--undefined--
1672	1.696	0.000004	3	1093.864	269.604	3236.163	144.294	4105.307	886.560	--undefined--	--undefined--	--undefined--	--undefined--
1673	1.697	0.000004	3	1096.175	308.518	3235.648	157.911	4101.820	939.133	--undefined--	--undefined--	--undefined--	--undefined--
1674	1.698	0.000004	3	1100.007	337.956	3237.683	170.545	4103.806	988.455	--undefined--	--undefined--	--undefined--	--undefined--
1675	1.699	0.000004	3	1104.461	349.826	3243.012	180.729	4112.705	1038.180	--undefined--	--undefined--	--undefined--	--undefined--
1676	1.700	0.000002	3	1108.043	344.626	3251.365	186.713	4132.051	1083.788	--undefined--	--undefined--	--undefined--	--undefined--
1677	1.701	0.000002	3	1109.975	330.823	3261.282	187.615	4165.082	1110.649	--undefined--	--undefined--	--undefined--	--undefined--
1678	1.702	0.000002	3	1110.400	318.186	3270.757	184.450	4209.839	1101.114	--undefined--	--undefined--	--undefined--	--undefined--
1679	1.703	0.000002	3	1109.639	313.482	3278.137	179.655	4256.914	1048.622	--undefined--	--undefined--	--undefined--	--undefined--
1680	1.704	0.000002	3	1107.657	320.211	3282.568	175.702	4295.285	964.836	--undefined--	--undefined--	--undefined--	--undefined--
1681	1.705	0.000002	4	700.820	3315.340	1103.858	339.667	3283.954	174.248	4319.427	869.699	--undefined--	--undefined--
1682	1.706	0.000002	4	966.421	2805.827	1096.958	371.499	3282.778	176.122	4329.425	778.871	--undefined--	--undefined--
1683	1.707	0.000002	4	1084.916	413.122	1111.229	2424.114	3279.887	181.605	4327.730	700.646	--undefined--	--undefined--
1684	1.708	0.000002	4	1065.519	457.896	1216.779	2134.680	3276.262	190.514	4317.278	638.008	--undefined--	--undefined--
1685	1.709	0.000002	4	1038.957	494.394	1309.223	1916.944	3272.775	201.975	4301.216	590.685	--undefined--	--undefined--
1686	1.710	0.000002	4	1010.860	513.929	1391.980	1754.503	3270.067	214.129	4283.139	556.476	--undefined--	--undefined--
1687	1.711	0.000002	4	988.437	520.878	1459.025	1624.875	3268.587	224.262	4267.057	532.399	--undefined--	--undefined--
1688	1.712	0.000002	4	974.193	525.941	1506.982	1507.592	3268.674	229.644	4256.876	515.574	--undefined--	--undefined--
1689	1.713	0.000002	4	966.774	535.078	1538.113	1395.082	3270.476	228.724	4255.576	503.308	--undefined--	--undefined--
1690	1.714	0.000002	4	964.048	547.833	1558.077	1292.058	3273.749	221.926	4264.281	492.630	--undefined--	--undefined--
1691	1.715	0.000002	4	964.739	560.202	1572.941	1210.221	3277.741	211.656	4281.432	480.665	--undefined--	--undefined--
1692	1.716	0.000002	4	968.788	568.027	1587.441	1163.309	3281.324	201.564	4302.787	466.675	--undefined--	--undefined--
1693	1.717	0.000002	4	976.545	568.590	1605.412	1162.532	3283.268	195.244	4323.124	453.644	--undefined--	--undefined--
1694	1.718	0.000002	4	987.379	559.892	1631.088	1211.400	3282.512	194.893	4338.696	446.437	--undefined--	--undefined--
1695	1.719	0.0000009	4	999.431	540.758	1668.361	1300.763	3278.453	200.591	4348.349	448.031	--undefined--	--undefined--
1696	1.720	0.0000009	4	1011.492	512.290	1717.065	1409.463	3271.191	210.434	4352.852	457.736	--undefined--	--undefined--
1697	1.721	0.0000009	4	1024.274	476.808	1771.181	1513.240	3261.567	221.367	4353.656	472.056	--undefined--	--undefined--
1698	1.722	0.0000009	4	1038.592	436.149	1823.283	1591.114	3250.977	230.491	4352.075	486.282	--undefined--	--undefined--
1699	1.723	0.0000009	4	1053.418	392.690	1870.056	1623.696	3241.000	236.484	4348.937	495.787	--undefined--	--undefined--
1700	1.724	0.0000009	4	1066.615	350.423	1912.660	1595.713	3232.857	240.383	4344.365	497.414	--undefined--	--undefined--
1701	1.725	0.0000007	4	1076.825	313.528	1953.511	1506.639	3226.961	245.122	4337.676	490.791	--undefined--	--undefined--
1702	1.726	0.0000007	4	1084.161	284.576	1993.536	1374.728	3222.985	254.026	4327.820	478.312	--undefined--	--undefined--
1703	1.727	0.0000007	4	1089.621	264.459	2031.120	1227.275	3220.319	269.082	4314.269	463.313	--undefined--	--undefined--
