frame	time(s)	intensity	nformants	F1(Hz)	B1(Hz)	F2(Hz)	B2(Hz)	F3(Hz)	B3(Hz)	F4(Hz)	B4(Hz)	F5(Hz)	B5(Hz)
1	0.025	0.004	5	984.633	157.603	1480.222	48.927	2897.016	214.482	4136.969	128.566	4675.998	1518.252
2	0.026	0.004	5	981.095	165.507	1482.550	50.039	2889.730	211.726	4132.057	131.816	4657.750	1513.432
3	0.027	0.004	5	977.967	174.292	1485.060	51.282	2882.134	206.140	4126.756	134.528	4646.430	1521.827
4	0.028	0.004	5	975.425	183.836	1487.640	52.537	2875.320	199.276	4121.690	136.667	4642.854	1545.898
5	0.029	0.004	5	973.617	193.818	1490.226	53.777	2869.856	192.516	4117.335	138.510	4646.397	1584.371
6	0.030	0.004	5	972.573	203.721	1492.833	55.033	2865.876	186.866	4113.953	140.491	4655.336	1633.121
7	0.031	0.004	5	972.150	212.958	1495.546	56.341	2863.259	182.935	4111.559	143.058	4667.053	1685.874
8	0.032	0.004	5	972.042	221.047	1498.472	57.684	2861.780	181.031	4109.904	146.626	4677.965	1734.204
9	0.033	0.004	5	971.846	227.766	1501.680	58.959	2861.207	181.271	4108.487	151.579	4683.450	1767.423
10	0.034	0.004	5	971.146	233.201	1505.156	59.998	2861.335	183.669	4106.614	158.209	4678.739	1774.013
11	0.035	0.004	5	969.592	237.713	1508.792	60.626	2862.020	188.153	4103.517	166.487	4661.477	1745.753
12	0.036	0.004	5	966.952	241.818	1512.413	60.746	2863.199	194.524	4098.564	175.747	4634.242	1682.756
13	0.037	0.004	5	963.120	246.007	1515.832	60.406	2864.909	202.467	4091.518	184.536	4603.784	1594.995
14	0.038	0.004	5	958.092	250.537	1518.904	59.803	2867.284	211.640	4082.746	190.985	4577.242	1498.085
15	0.039	0.004	5	951.931	255.241	1521.548	59.225	2870.514	221.805	4073.167	193.719	4559.143	1406.534
16	0.040	0.004	5	944.778	259.452	1523.753	58.984	2874.782	232.787	4063.889	192.655	4551.166	1329.434
17	0.041	0.004	5	936.897	262.095	1525.567	59.363	2880.202	244.137	4055.789	188.994	4553.389	1270.235
18	0.042	0.004	5	928.710	261.970	1527.086	60.594	2886.703	254.570	4049.338	184.568	4565.247	1228.652
19	0.043	0.004	5	920.751	258.217	1528.450	62.833	2893.809	261.599	4044.691	181.197	4585.703	1202.341
20	0.044	0.004	5	913.531	250.842	1529.860	66.139	2900.493	262.181	4041.852	180.434	4613.003	1188.000
21	0.045	0.004	5	907.416	241.008	1531.620	70.431	2905.480	254.803	4040.846	183.624	4644.579	1183.077
22	0.046	0.004	5	902.554	230.732	1534.175	75.383	2908.038	241.349	4041.915	192.057	4677.592	1188.143
23	0.047	0.004	5	898.864	222.144	1538.033	80.277	2908.450	226.301	4045.668	206.901	4709.982	1207.737
24	0.048	0.004	5	896.085	216.914	1543.495	84.033	2907.668	213.980	4053.135	228.643	4741.355	1248.874
25	0.049	0.004	5	893.901	216.166	1550.299	85.681	2906.679	206.783	4065.544	255.930	4773.622	1319.463
26	0.050	0.004	5	892.095	220.548	1557.581	85.022	2906.144	205.235	4083.546	284.258	4812.110	1427.713
27	0.051	0.004	5	890.595	230.094	1564.283	82.759	2906.324	208.860	4105.781	306.419	4867.366	1579.898
28	0.052	0.004	5	889.389	243.982	1569.626	79.966	2907.163	216.972	4128.165	316.843	4956.367	1773.797
29	0.053	0.004	5	888.398	260.457	1573.242	77.559	2908.492	229.005	4145.952	316.395	5105.709	1993.005
30	0.054	0.004	4	887.402	276.997	1575.056	76.110	2910.209	244.235	4156.602	310.845	--undefined--	--undefined--
31	0.055	0.004	4	886.027	290.648	1575.114	75.896	2912.198	261.117	4159.907	305.786	--undefined--	--undefined--
32	0.056	0.004	4	883.812	298.519	1573.489	76.983	2914.005	276.722	4156.460	304.203	--undefined--	--undefined--
33	0.057	0.004	4	880.407	298.541	1570.295	79.301	2914.593	286.894	4146.769	306.568	--undefined--	--undefined--
34	0.058	0.004	4	875.909	290.385	1565.814	82.748	2912.716	287.806	4131.430	311.524	--undefined--	--undefined--
35	0.059	0.004	4	871.083	275.933	1560.704	87.320	2907.969	278.653	4111.849	316.911	--undefined--	--undefined--
36	0.060	0.004	5	867.084	258.520	1556.086	93.194	2901.326	263.034	4090.544	321.411	5210.611	2228.804
37	0.061	0.004	5	864.749	241.259	1553.261	100.618	2894.272	246.840	4070.210	325.859	5069.215	2089.896
38	0.062	0.004	5	864.100	225.846	1553.110	109.721	2887.670	234.639	4052.169	332.590	4991.454	1962.546
39	0.063	0.004	5	864.454	212.669	1555.638	120.484	2881.561	228.047	4035.838	343.383	4939.392	1838.671
40	0.064	0.004	5	864.930	201.571	1560.078	132.934	2875.555	226.346	4019.488	357.899	4896.836	1710.110
41	0.065	0.004	5	864.890	192.417	1565.360	147.351	2869.244	227.623	4001.468	373.284	4858.178	1576.533
42	0.066	0.004	5	864.076	185.239	1570.491	164.248	2862.467	229.568	3981.339	384.992	4823.049	1445.533
43	0.067	0.004	5	862.531	180.230	1574.640	184.189	2855.434	230.046	3960.412	389.065	4791.277	1327.584
44	0.068	0.004	5	860.447	177.717	1577.038	207.521	2848.663	227.636	3941.074	384.734	4760.655	1229.785
45	0.069	0.004	5	858.020	178.143	1576.829	234.053	2842.725	221.951	3925.303	374.784	4727.771	1152.443
46	0.070	0.004	5	855.347	182.024	1573.065	262.617	2837.986	213.484	3913.805	363.482	4689.894	1089.788
47	0.071	0.004	5	852.333	189.854	1564.984	290.644	2834.566	203.145	3906.203	354.337	4646.613	1033.163
48	0.072	0.004	5	848.655	201.954	1552.625	314.248	2832.481	191.888	3901.656	348.939	4600.950	975.414
49	0.073	0.004	5	843.786	218.343	1537.413	329.509	2831.805	180.615	3899.403	346.607	4559.127	915.306
50	0.074	0.004	5	837.139	238.765	1521.945	334.683	2832.640	170.193	3899.086	344.675	4527.996	858.538
51	0.075	0.004	5	828.199	262.938	1508.724	331.230	2834.951	161.299	3900.583	339.808	4511.509	812.785
52	0.076	0.004	5	816.483	290.835	1498.917	322.413	2838.461	154.189	3903.415	329.753	4509.286	781.092
53	0.077	0.004	5	801.376	322.763	1492.248	311.143	2842.726	148.664	3906.598	314.091	4517.909	760.517
54	0.078	0.004	5	782.076	359.212	1487.758	299.029	2847.315	144.267	3909.342	293.773	4532.972	745.866
55	0.079	0.004	5	757.737	400.474	1484.578	286.554	2851.912	140.522	3911.644	270.395	4550.510	733.417
56	0.080	0.002	5	727.793	446.010	1482.334	273.576	2856.298	137.115	3914.127	245.772	4567.625	721.863
57	0.081	0.002	5	692.449	493.692	1481.200	259.826	2860.285	133.985	3917.448	221.706	4582.494	711.351
58	0.082	0.002	5	653.225	539.401	1481.674	245.304	2863.672	131.353	3921.858	199.773	4594.074	702.400
59	0.083	0.002	5	613.155	577.640	1484.199	230.460	2866.288	129.652	3927.142	181.120	4601.791	695.426
60	0.084	0.002	5	576.197	603.289	1488.823	216.054	2868.098	129.380	3932.821	166.374	4605.380	690.707
61	0.085	0.002	5	545.870	613.577	1495.113	202.830	2869.300	130.965	3938.407	155.675	4604.898	688.466
62	0.086	0.002	5	523.958	608.922	1502.336	191.254	2870.351	134.668	3943.568	148.797	4600.848	689.031
63	0.087	0.002	5	510.202	592.229	1509.737	181.457	2871.860	140.541	3948.179	145.275	4594.271	693.076
64	0.088	0.002	5	503.019	567.420	1516.744	173.336	2874.395	148.367	3952.302	144.487	4586.702	701.740
65	0.089	0.002	5	500.460	538.206	1523.032	166.687	2878.216	157.546	3956.116	145.680	4579.948	716.397
66	0.090	0.002	5	500.819	507.502	1528.504	161.329	2883.042	167.071	3959.843	147.998	4575.760	738.054
67	0.091	0.002	5	502.819	477.349	1533.224	157.199	2887.999	175.750	3963.677	150.593	4575.510	766.649
68	0.092	0.002	5	505.588	448.981	1537.341	154.377	2891.915	182.715	3967.770	152.814	4579.990	800.649
69	0.093	0.002	5	508.566	422.878	1541.001	153.026	2893.831	187.866	3972.275	154.372	4589.304	837.156
70	0.094	0.002	5	511.401	398.895	1544.267	153.305	2893.333	191.893	3977.395	155.363	4602.805	872.436
71	0.095	0.002	5	513.861	376.594	1547.069	155.309	2890.471	195.911	3983.349	156.110	4619.067	902.733
72	0.096	0.002	5	515.773	355.645	1549.197	159.052	2885.420	201.014	3990.266	156.927	4636.065	925.193
73	0.097	0.002	5	517.003	336.074	1550.339	164.399	2878.187	207.968	3998.057	157.925	4651.670	938.514
74	0.098	0.002	5	517.446	318.224	1550.171	170.916	2868.510	216.986	4006.314	158.947	4664.294	942.780
75	0.099	0.002	5	517.046	302.477	1548.514	177.688	2855.934	227.519	4014.290	159.662	4673.377	938.600
76	0.100	0.002	5	515.820	288.952	1545.542	183.249	2840.061	238.091	4021.021	159.784	4679.580	926.445
77	0.101	0.002	5	513.886	277.387	1541.939	185.879	2820.934	246.407	4025.557	159.300	4684.749	906.957
78	0.102	0.002	5	511.476	267.277	1538.821	184.323	2799.430	250.007	4027.208	158.640	4691.556	881.721
79	0.103	0.002	5	508.904	258.154	1537.305	178.520	2777.317	247.376	4025.607	158.702	4702.573	852.991
80	0.104	0.002	5	506.458	249.700	1537.985	169.658	2756.786	238.783	4020.573	160.721	4718.914	821.961
81	0.105	0.002	5	504.283	241.634	1540.737	159.499	2739.682	226.126	4011.934	165.957	4739.268	787.578
82	0.106	0.002	5	502.316	233.624	1544.950	149.625	2727.034	211.938	3999.536	175.282	4760.379	747.944
83	0.107	0.002	5	500.294	225.431	1549.903	141.088	2719.124	198.411	3983.445	188.843	4778.880	703.129
84	0.108	0.002	5	497.836	217.121	1554.987	134.424	2715.794	186.956	3964.207	206.056	4792.851	656.373
85	0.109	0.002	5	494.560	209.132	1559.719	129.765	2716.684	178.247	3942.919	225.945	4801.930	612.723
86	0.110	0.002	5	490.206	202.137	1563.639	126.930	2721.313	172.474	3921.001	247.626	4806.538	576.817
87	0.111	0.001	5	484.723	196.842	1566.232	125.459	2729.062	169.583	3899.766	270.601	4807.241	551.494
88	0.112	0.001	5	478.293	193.788	1566.976	124.646	2739.161	169.453	3880.052	294.711	4804.579	537.607
89	0.113	0.001	5	471.289	193.170	1565.622	123.666	2750.776	171.980	3862.168	319.818	4799.213	534.583
90	0.114	0.001	5	464.167	194.683	1562.557	121.878	2763.183	177.017	3846.131	345.334	4792.192	541.247
91	0.115	0.001	5	457.327	197.508	1558.890	119.146	2775.933	184.177	3832.042	369.735	4785.196	556.648
92	0.116	0.0008	5	450.994	200.518	1556.046	115.871	2788.826	192.521	3820.362	390.232	4780.488	580.608
93	0.117	0.0008	5	445.172	202.564	1555.213	112.636	2801.686	200.391	3811.897	403.044	4780.440	613.562
94	0.118	0.0008	5	439.686	202.691	1557.087	109.844	2814.079	205.741	3807.405	404.690	4786.770	655.566
95	0.119	0.0008	5	434.293	200.308	1561.950	107.584	2825.266	207.009	3807.110	393.905	4799.893	705.043
96	0.120	0.0005	5	428.803	195.290	1569.796	105.689	2834.501	203.935	3810.617	372.637	4818.741	758.247
97	0.121	0.0005	5	423.137	187.938	1580.342	103.791	2841.377	197.580	3817.243	345.039	4841.109	809.672
98	0.122	0.0005	5	417.328	178.853	1592.944	101.397	2845.913	189.655	3826.299	315.335	4864.303	852.920
99	0.123	0.0005	5	411.479	168.826	1606.581	98.061	2848.413	181.817	3837.018	286.374	4885.811	881.993
100	0.124	0.0005	5	405.718	158.769	1620.016	93.634	2849.303	175.397	3848.356	259.539	4903.877	893.307
101	0.125	0.0005	5	400.181	149.595	1632.121	88.422	2849.056	171.462	3858.985	235.454	4917.782	887.604
102	0.126	0.0005	5	395.010	142.069	1642.151	83.121	2848.155	170.960	3867.597	214.677	4927.692	870.205
103	0.127	0.0005	5	390.362	136.693	1649.804	78.552	2847.015	174.781	3873.332	197.925	4934.268	849.244
104	0.128	0.0005	5	386.392	133.666	1655.084	75.400	2845.843	183.702	3876.027	185.862	4938.334	832.966
105	0.129	0.0005	5	383.196	132.919	1658.117	74.083	2844.480	198.213	3876.155	178.813	4940.686	827.516
106	0.130	0.0005	5	380.754	134.194	1659.038	74.769	2842.345	218.219	3874.564	176.677	4942.021	835.990
107	0.131	0.0005	5	378.904	137.130	1657.952	77.438	2838.540	242.597	3872.201	179.037	4942.966	858.627
108	0.132	0.0005	5	377.370	141.279	1654.948	81.920	2832.191	268.691	3869.893	185.378	4944.183	893.603
109	0.133	0.0005	5	375.857	146.089	1650.131	87.883	2823.029	292.238	3868.216	195.402	4946.539	938.237
110	0.134	0.0004	5	374.136	150.953	1643.682	94.834	2812.060	308.415	3867.407	209.453	4951.269	990.521
111	0.135	0.0004	5	372.107	155.412	1635.930	102.230	2801.740	314.068	3867.215	228.877	4959.740	1049.751
112	0.136	0.0004	5	369.789	159.355	1627.363	109.690	2795.002	309.394	3866.541	255.973	4971.961	1113.537
113	0.137	0.0004	5	367.253	162.892	1618.487	117.094	2793.464	297.281	3862.776	293.216	4983.093	1169.801
114	0.138	0.0004	5	364.551	165.870	1609.559	124.378	2796.150	281.044	3851.021	341.289	4980.677	1189.630
115	0.139	0.0003	5	361.681	167.606	1600.472	131.212	2799.888	262.665	3824.689	394.555	4954.446	1138.761
116	0.140	0.0003	5	358.622	167.416	1591.017	136.994	2801.346	242.116	3780.896	435.825	4915.633	1015.509
117	0.141	0.0003	5	355.385	165.476	1581.309	141.310	2799.286	218.071	3728.458	446.075	4884.918	864.572
118	0.142	0.0003	5	352.015	162.881	1571.815	144.375	2794.982	190.349	3682.433	426.947	4867.788	731.558
119	0.143	0.0003	5	348.562	160.869	1562.979	146.888	2790.529	161.298	3650.254	395.792	4859.856	633.087
120	0.144	0.0003	5	345.067	160.233	1554.960	149.525	2787.282	134.155	3631.024	366.508	4857.084	568.137
121	0.145	0.0003	5	341.553	161.287	1547.686	152.617	2785.714	111.059	3621.224	345.097	4857.368	531.326
122	0.146	0.0003	5	338.022	164.082	1541.024	156.149	2785.877	92.672	3617.554	333.127	4859.630	517.652
123	0.147	0.0003	5	334.451	168.632	1534.924	159.911	2787.719	78.749	3617.377	330.741	4863.165	523.434
124	0.148	0.0003	5	330.807	175.068	1529.465	163.722	2791.188	68.722	3618.586	338.102	4867.355	546.295
125	0.149	0.0003	5	327.050	183.720	1524.840	167.614	2796.219	62.011	3619.526	355.904	4871.565	584.897
126	0.150	0.0003	5	323.125	195.090	1521.291	171.939	2802.660	58.142	3619.012	385.340	4875.127	638.493
127	0.151	0.0003	5	318.929	209.786	1519.050	177.373	2810.182	56.754	3616.330	427.738	4877.368	706.202
128	0.152	0.0003	5	314.257	228.520	1518.316	184.936	2818.166	57.595	3611.026	483.935	4877.557	785.958
129	0.153	0.0002	5	308.730	252.233	1519.261	196.086	2825.596	60.567	3602.279	553.364	4874.723	872.887
130	0.154	0.0002	5	301.715	282.172	1521.982	212.821	2830.993	65.810	3587.909	632.555	4867.495	957.002
131	0.155	0.0002	5	292.259	319.551	1526.353	237.558	2832.478	73.747	3564.111	712.874	4854.840	1022.737
132	0.156	0.0002	5	279.139	364.781	1531.849	272.635	2828.079	84.803	3528.632	779.330	4838.662	1057.141
133	0.157	0.0002	5	260.983	417.132	1537.623	319.735	2816.349	98.467	3487.442	816.695	4825.107	1065.249
134	0.158	0.0002	5	236.104	475.628	1542.906	379.716	2797.229	112.278	3455.332	823.749	4820.516	1070.759
135	0.159	0.0002	5	201.459	540.110	1547.308	452.619	2772.671	122.625	3445.177	815.572	4828.209	1098.081
136	0.160	0.0001	5	149.437	610.690	1550.659	536.549	2745.926	127.541	3459.864	806.399	4850.409	1159.771
137	0.161	0.0001	4	1552.711	625.007	2719.733	127.788	3493.936	796.757	4889.694	1252.342	--undefined--	--undefined--
138	0.162	0.0001	4	1553.280	705.037	2695.449	125.139	3537.261	777.209	4944.382	1349.697	--undefined--	--undefined--
139	0.163	0.0001	4	1552.832	760.678	2673.529	120.932	3578.796	740.847	4997.068	1403.286	--undefined--	--undefined--
140	0.164	0.0001	4	1552.715	782.709	2654.178	116.047	3612.564	689.966	5017.878	1374.700	--undefined--	--undefined--
141	0.165	0.0001	4	1554.263	775.344	2637.615	111.382	3639.951	631.658	5000.329	1274.579	--undefined--	--undefined--
142	0.166	0.0001	4	1557.750	751.184	2624.033	108.043	3665.138	573.292	4965.617	1146.285	--undefined--	--undefined--
143	0.167	0.0001	4	1562.414	722.107	2613.561	107.225	3690.235	521.681	4930.413	1025.501	--undefined--	--undefined--
144	0.168	0.0001	4	1566.961	695.849	2606.366	110.084	3714.402	482.706	4899.412	928.110	--undefined--	--undefined--
145	0.169	0.0001	4	1569.859	677.003	2602.775	117.743	3735.288	460.958	4872.143	857.058	--undefined--	--undefined--
146	0.170	0.0001	4	1569.389	667.991	2603.267	131.241	3750.308	459.510	4847.325	808.942	--undefined--	--undefined--
147	0.171	0.0001	4	1563.670	668.605	2608.160	151.257	3757.050	479.356	4824.610	776.814	--undefined--	--undefined--
148	0.172	0.0001	4	1550.968	675.296	2617.052	177.619	3753.371	518.077	4805.205	752.421	--undefined--	--undefined--
149	0.173	0.0001	4	1530.635	681.858	2628.330	209.022	3738.001	568.243	4791.276	730.285	--undefined--	--undefined--
150	0.174	0.0002	4	1504.256	682.427	2639.277	243.262	3711.895	617.925	4783.898	711.391	--undefined--	--undefined--
151	0.175	0.0002	4	1475.471	675.375	2647.067	277.680	3679.135	654.794	4781.370	701.851	--undefined--	--undefined--
152	0.176	0.0002	4	1447.965	663.545	2650.242	309.501	3646.216	671.020	4779.991	707.460	--undefined--	--undefined--
153	0.177	0.0002	4	1424.231	649.993	2649.659	336.703	3620.357	666.079	4776.424	729.442	--undefined--	--undefined--
154	0.178	0.0002	4	1406.213	634.920	2647.971	359.282	3607.083	646.677	4769.783	763.341	--undefined--	--undefined--
155	0.179	0.0002	4	1395.851	616.498	2647.954	378.993	3608.053	621.725	4763.044	800.733	--undefined--	--undefined--
156	0.180	0.0002	4	1394.360	593.112	2651.069	397.172	3621.206	595.939	4762.610	833.995	--undefined--	--undefined--
157	0.181	0.0002	4	1401.052	564.601	2656.835	412.912	3641.959	568.671	4774.620	861.067	--undefined--	--undefined--
158	0.182	0.0002	4	1413.147	532.440	2662.937	423.470	3664.237	537.892	4801.592	886.100	--undefined--	--undefined--
159	0.183	0.0002	4	1427.016	499.525	2666.470	426.370	3682.348	504.070	4843.539	915.715	--undefined--	--undefined--
160	0.184	0.0002	4	1439.860	469.363	2665.993	420.835	3693.023	469.612	4899.824	950.484	--undefined--	--undefined--
161	0.185	0.0002	4	1450.371	444.810	2662.565	407.760	3695.715	436.557	4966.438	976.053	--undefined--	--undefined--
162	0.186	0.0002	4	1458.205	427.273	2658.744	389.248	3691.683	406.319	5029.691	965.045	--undefined--	--undefined--
163	0.187	0.0002	4	1463.261	416.540	2656.750	367.824	3683.191	380.356	5067.983	900.621	--undefined--	--undefined--
164	0.188	0.0002	4	1465.469	411.042	2657.461	345.371	3673.230	359.783	5071.560	797.453	--undefined--	--undefined--
165	0.189	0.0002	4	1465.285	408.671	2660.636	322.504	3665.509	343.687	5050.086	683.759	--undefined--	--undefined--
166	0.190	0.0002	4	1464.508	408.229	2665.510	298.975	3663.917	327.779	5017.506	577.677	--undefined--	--undefined--
167	0.191	0.0002	4	1466.245	410.632	2670.831	275.425	3670.576	306.499	4983.652	485.630	--undefined--	--undefined--
168	0.192	0.0002	4	1473.669	418.519	2674.834	254.860	3683.688	278.313	4953.823	409.938	--undefined--	--undefined--
169	0.193	0.0002	4	1488.706	434.220	2676.251	241.429	3698.655	247.682	4929.310	352.071	--undefined--	--undefined--
170	0.194	0.0002	4	1511.172	457.197	2675.246	237.870	3711.612	220.894	4908.811	312.040	--undefined--	--undefined--
171	0.195	0.0002	4	1538.412	482.564	2672.998	244.446	3720.971	201.811	4889.937	288.441	--undefined--	--undefined--
172	0.196	0.0002	4	1565.989	502.540	2670.650	259.601	3726.689	191.488	4870.136	279.030	--undefined--	--undefined--
173	0.197	0.0002	4	1589.391	510.709	2668.739	281.134	3729.233	189.463	4847.311	280.800	--undefined--	--undefined--
174	0.198	0.0002	4	1605.999	505.439	2667.376	307.024	3729.008	194.514	4820.408	289.759	--undefined--	--undefined--
175	0.199	0.0002	4	1615.881	489.322	2666.721	335.637	3726.177	204.802	4789.988	301.303	--undefined--	--undefined--
176	0.200	0.0002	4	1620.801	466.499	2667.218	365.576	3720.780	217.987	4758.401	311.697	--undefined--	--undefined--
177	0.201	0.0002	4	1622.726	440.853	2669.495	395.452	3712.999	231.643	4729.067	319.796	--undefined--	--undefined--
178	0.202	0.0002	4	1623.067	415.440	2674.084	423.453	3703.354	243.822	4705.166	327.193	--undefined--	--undefined--
179	0.203	0.0002	4	1622.611	392.452	2681.101	446.808	3692.762	253.459	4688.813	336.457	--undefined--	--undefined--
180	0.204	0.0002	4	1621.674	373.194	2689.818	461.717	3682.427	260.470	4681.300	349.150	--undefined--	--undefined--
181	0.205	0.0002	4	1620.296	357.753	2698.400	464.485	3673.601	265.633	4683.761	364.761	--undefined--	--undefined--
182	0.206	0.0002	4	1618.497	344.434	2704.544	453.656	3667.328	270.286	4697.395	380.150	--undefined--	--undefined--
183	0.207	0.0002	4	1616.492	329.896	2706.995	431.400	3664.377	276.066	4722.629	389.260	--undefined--	--undefined--
184	0.208	0.0002	4	1614.651	311.204	2706.388	402.494	3665.292	284.729	4757.188	384.768	--undefined--	--undefined--
185	0.209	0.0002	4	1613.216	288.469	2704.510	371.917	3670.437	298.014	4795.123	363.386	--undefined--	--undefined--
186	0.210	0.0002	4	1612.068	264.725	2703.129	343.213	3679.943	317.400	4829.579	329.946	--undefined--	--undefined--
187	0.211	0.0002	4	1610.752	243.395	2703.462	318.260	3693.442	343.630	4856.612	293.633	--undefined--	--undefined--
188	0.212	0.0002	4	1608.616	226.566	2706.185	297.856	3709.487	376.120	4875.608	261.780	--undefined--	--undefined--
189	0.213	0.0002	4	1604.885	214.931	2711.565	282.321	3725.085	412.448	4887.590	238.091	--undefined--	--undefined--
190	0.214	0.0002	4	1598.704	208.234	2719.483	271.545	3736.215	447.535	4893.949	223.725	--undefined--	--undefined--
191	0.215	0.0002	4	1589.248	205.467	2729.256	264.512	3739.800	472.719	4895.987	218.526	--undefined--	--undefined--
192	0.216	0.0002	4	1575.981	204.809	2739.510	259.194	3736.050	477.747	4894.761	221.905	--undefined--	--undefined--
193	0.217	0.0002	4	1559.111	203.696	2748.424	253.788	3728.488	457.828	4890.902	233.443	--undefined--	--undefined--
194	0.218	0.0002	4	1540.204	199.497	2754.200	248.633	3720.928	418.795	4884.574	252.765	--undefined--	--undefined--
195	0.219	0.0002	4	1522.279	191.051	2755.165	246.677	3715.021	372.710	4875.898	278.347	--undefined--	--undefined--
196	0.220	0.0002	4	1508.347	179.890	2749.595	251.598	3710.493	329.389	4865.714	305.994	--undefined--	--undefined--
197	0.221	0.0002	4	1499.389	169.107	2735.919	265.020	3706.368	292.474	4855.900	328.865	--undefined--	--undefined--
198	0.222	0.0002	4	1494.287	161.001	2713.496	285.107	3701.862	261.123	4848.663	340.276	--undefined--	--undefined--
199	0.223	0.0002	4	1491.431	156.291	2683.415	307.548	3696.631	233.713	4845.373	337.659	--undefined--	--undefined--
200	0.224	0.00008	4	1489.894	154.884	2648.649	328.239	3690.565	209.941	4846.012	323.925	--undefined--	--undefined--
201	0.225	0.00008	4	1489.576	156.799	2613.279	345.893	3683.559	190.690	4849.522	305.067	--undefined--	--undefined--
202	0.226	0.00008	4	1490.847	162.577	2581.134	362.777	3675.548	177.105	4854.468	286.925	--undefined--	--undefined--
203	0.227	0.00008	4	1494.079	173.178	2554.838	383.410	3666.742	170.098	4859.534	273.592	--undefined--	--undefined--
204	0.228	0.00008	4	1499.205	189.588	2535.754	412.760	3657.843	170.381	4863.792	267.275	--undefined--	--undefined--
205	0.229	0.00008	4	1505.376	212.338	2524.484	455.270	3650.112	178.678	4866.783	268.641	--undefined--	--undefined--
206	0.230	0.00004	4	1510.822	241.117	2521.460	514.927	3645.334	195.798	4868.463	277.185	--undefined--	--undefined--
207	0.231	0.00004	4	1513.134	274.453	2527.809	596.057	3645.799	222.349	4869.034	291.535	--undefined--	--undefined--
208	0.232	0.00004	5	1510.178	309.522	1838.318	3497.314	2547.972	704.040	3654.319	257.724	4868.723	309.739
209	0.233	0.00004	5	1501.455	342.798	2070.654	2368.411	2598.722	836.918	3673.875	297.910	4867.642	329.402
210	0.234	0.00004	5	1488.553	372.366	2083.952	1701.860	2704.018	902.528	3705.778	333.282	4865.804	347.615
211	0.235	0.00004	5	1473.591	398.944	2045.124	1396.086	2790.740	814.643	3746.545	352.117	4863.224	360.957
212	0.236	0.00004	5	1457.808	422.895	2021.346	1255.327	2827.512	692.055	3788.575	350.740	4859.981	366.207
213	0.237	0.00004	5	1442.103	441.742	2011.341	1185.792	2837.253	582.843	3825.419	335.812	4856.226	361.765
214	0.238	0.00003	5	1427.697	451.383	2012.825	1151.709	2835.781	493.762	3854.065	317.179	4852.171	348.738
215	0.239	0.00003	5	1415.613	448.902	2025.821	1133.132	2831.747	425.946	3873.549	302.854	4848.052	330.632
216	0.240	0.00003	5	1405.672	434.530	2051.085	1114.614	2829.744	380.976	3883.281	298.005	4844.065	311.745
217	0.241	0.00003	5	1396.391	411.861	2087.672	1083.834	2831.859	360.265	3882.273	305.032	4840.432	295.293
218	0.242	0.00003	5	1386.029	386.082	2130.555	1034.014	2838.673	364.028	3869.311	322.967	4837.619	282.355
219	0.243	0.00003	5	1373.718	361.125	2171.413	965.763	2849.915	390.608	3844.076	346.090	4836.483	272.316
220	0.244	0.00003	5	1359.923	338.168	2202.475	885.810	2864.556	435.485	3809.057	363.993	4838.034	264.627
221	0.245	0.00003	5	1346.195	316.744	2220.110	804.202	2880.339	490.761	3770.771	366.420	4842.771	260.485
222	0.246	0.00003	5	1334.410	296.745	2226.168	730.698	2893.979	547.817	3737.786	351.050	4850.188	262.899
223	0.247	0.00003	5	1325.962	279.168	2226.058	670.883	2903.259	602.069	3716.196	325.278	4858.897	275.414
224	0.248	0.00003	5	1321.350	265.484	2225.188	625.329	2908.629	654.379	3707.243	299.445	4867.050	300.929
225	0.249	0.00003	5	1320.239	256.789	2226.909	591.470	2912.117	707.928	3708.920	280.385	4872.664	341.018
226	0.250	0.00003	5	1321.782	253.505	2232.348	565.813	2915.330	763.813	3718.475	270.370	4873.828	395.046
227	0.251	0.00002	5	1324.874	255.550	2241.032	545.960	2917.796	818.068	3733.619	268.488	4868.894	458.512
228	0.252	0.00002	5	1328.244	262.584	2251.838	532.089	2915.758	861.765	3752.494	271.676	4856.759	521.288
229	0.253	0.00002	5	1330.433	274.034	2263.942	526.902	2902.839	884.876	3773.033	275.549	4837.629	568.216
230	0.254	0.00002	5	1329.819	288.745	2277.207	534.112	2874.126	881.271	3792.446	276.084	4814.442	584.980
231	0.255	0.00002	5	1324.956	304.361	2292.161	556.840	2831.161	851.505	3807.639	271.727	4793.275	567.271
232	0.256	0.00002	5	1315.486	317.135	2310.364	596.784	2781.941	804.078	3816.277	263.975	4780.465	524.096
233	0.257	0.00003	5	1303.013	323.321	2335.132	654.930	2734.478	752.856	3817.334	255.947	4778.456	470.661
234	0.258	0.00003	5	1290.577	321.795	2370.663	735.694	2690.952	704.694	3811.105	250.257	4785.155	419.111
235	0.259	0.00003	5	1280.850	315.167	2414.018	855.785	2653.409	642.204	3799.232	247.688	4796.793	375.301
236	0.260	0.00003	5	1275.182	308.265	2438.702	1009.996	2642.100	559.311	3784.387	247.530	4810.499	340.623
237	0.261	0.00004	5	1274.165	306.051	2438.975	1145.794	2654.457	495.976	3769.309	248.831	4824.889	314.806
238	0.262	0.00004	5	1278.566	312.674	2423.675	1259.037	2673.893	450.282	3755.846	251.159	4839.578	297.591
239	0.263	0.00004	5	1289.964	331.337	2394.772	1360.166	2692.378	414.016	3744.667	254.645	4854.630	289.272
240	0.264	0.00004	5	1311.094	363.404	2352.692	1462.357	2705.466	384.517	3735.545	259.841	4870.171	290.839
241	0.265	0.00004	5	1345.407	404.703	2299.098	1586.909	2710.883	361.757	3727.874	267.767	4886.095	304.178
242	0.266	0.00004	5	1393.733	438.878	2242.050	1765.491	2707.958	346.850	3721.245	280.093	4901.829	332.218
243	0.267	0.00004	5	1446.246	440.319	2205.489	2026.974	2697.111	341.902	3715.844	299.278	4916.189	378.762
244	0.268	0.00004	5	1483.637	404.717	2228.343	2367.487	2679.003	349.058	3712.127	328.461	4927.314	447.958
245	0.269	0.00004	5	1498.415	355.693	2341.801	2761.994	2653.803	368.362	3709.581	370.563	4932.679	543.279
246	0.270	0.00004	5	1496.956	311.051	2567.810	3202.766	2621.761	396.523	3705.481	425.972	4929.055	665.567
247	0.271	0.00005	5	1486.628	276.348	2584.578	429.762	2932.364	3658.175	3695.175	488.846	4912.019	809.542
248	0.272	0.00005	5	1471.637	252.072	2544.600	469.186	3424.397	3957.929	3676.054	544.849	4876.360	954.638
249	0.273	0.00005	5	1453.779	237.010	2502.001	520.857	3653.978	581.989	3831.452	3795.420	4827.586	1047.694
250	0.274	0.00005	5	1433.740	229.183	2453.630	590.079	3639.332	610.770	3878.230	3167.105	4800.619	1036.594
251	0.275	0.00005	5	1412.153	226.018	2394.344	673.294	3638.773	658.160	3726.530	2402.287	4809.759	940.625
252	0.276	0.00005	5	1390.370	224.689	2323.610	750.278	3569.144	1696.754	3669.647	755.189	4828.518	815.202
253	0.277	0.00005	5	1370.560	223.039	2255.480	800.051	3390.995	1237.624	3777.968	775.604	4842.334	703.507
254	0.278	0.00005	5	1354.881	220.404	2208.575	829.731	3289.212	1062.968	3839.457	667.362	4850.084	622.046
255	0.279	0.00005	5	1344.458	217.343	2190.908	856.593	3233.824	987.107	3865.504	581.821	4853.627	574.353
256	0.280	0.00005	5	1339.139	214.740	2203.508	884.487	3198.582	977.977	3877.400	527.562	4855.259	560.726
257	0.281	0.00005	5	1337.940	213.241	2244.745	900.663	3178.838	1029.530	3882.798	502.143	4857.501	581.937
258	0.282	0.00005	5	1339.539	213.060	2306.615	879.148	3182.644	1142.969	3884.958	503.684	4863.221	640.044
259	0.283	0.00005	5	1342.449	213.765	2367.123	801.982	3230.730	1298.682	3885.114	531.146	4875.817	736.583
260	0.284	0.00005	5	1345.030	214.113	2403.793	696.189	3332.881	1419.798	3883.279	583.246	4899.254	865.900
261	0.285	0.00005	5	1345.740	212.362	2418.037	601.347	3454.111	1433.104	3878.356	655.635	4935.271	999.700
262	0.286	0.00005	5	1343.794	207.311	2420.950	529.214	3543.616	1364.245	3866.736	734.165	4972.288	1077.223
263	0.287	0.00005	5	1339.718	199.422	2420.275	478.102	3588.154	1316.967	3838.925	785.173	4986.580	1051.867
264	0.288	0.00005	5	1335.028	190.861	2420.282	444.916	3600.357	1381.843	3791.843	758.631	4976.206	944.459
265	0.289	0.00005	5	1331.319	184.326	2423.037	427.394	3568.538	1552.686	3752.414	660.153	4958.569	807.837
266	0.290	0.00005	5	1329.594	181.892	2429.227	423.964	3496.939	1756.881	3728.134	548.862	4943.995	680.109
267	0.291	0.00005	5	1330.160	184.654	2438.756	433.581	3400.708	1957.474	3712.896	448.588	4933.830	577.466
268	0.292	0.00005	5	1332.785	192.927	2451.246	455.593	3291.462	2139.015	3703.300	366.547	4926.648	503.107
269	0.293	0.00005	5	1336.840	206.497	2466.455	489.366	3177.778	2297.917	3697.325	304.570	4921.177	454.282
270	0.294	0.00005	5	1341.308	224.736	2484.442	533.767	3063.522	2434.878	3693.615	261.238	4916.863	425.871
271	0.295	0.00005	5	1344.737	246.738	2505.410	586.235	2948.474	2545.873	3691.275	233.624	4913.596	412.328
272	0.296	0.00005	5	1345.371	271.626	2529.059	640.812	2832.851	2623.945	3689.657	218.726	4911.286	408.935
273	0.297	0.00005	5	1341.531	298.944	2552.952	686.316	2722.589	2674.113	3688.124	214.125	4909.547	412.609
274	0.298	0.00005	5	1332.082	328.818	2570.853	709.752	2630.035	2722.859	3685.885	218.040	4907.632	422.007
275	0.299	0.00005	5	1316.832	361.670	2565.583	2807.562	2575.559	705.678	3681.978	228.953	4904.640	436.664
276	0.300	0.00005	5	1296.968	397.594	2524.395	2970.562	2565.753	678.392	3675.437	244.653	4899.779	455.655
277	0.301	0.00005	5	1275.788	435.993	2477.038	3286.788	2547.416	635.294	3665.668	260.813	4892.515	476.823
278	0.302	0.00005	5	1259.688	475.744	2348.159	3956.033	2528.649	583.262	3653.158	270.576	4882.683	496.964
279	0.303	0.00005	5	1258.463	511.912	1708.572	5954.908	2514.147	528.368	3640.155	267.707	4870.820	512.419
280	0.304	0.00005	4	1278.582	522.353	2503.538	476.937	3629.975	252.095	4858.899	519.331	--undefined--	--undefined--
281	0.305	0.00008	4	1304.237	484.253	2494.430	437.012	3624.961	230.331	4850.601	514.132	--undefined--	--undefined--
282	0.306	0.0001	4	1315.417	426.557	2486.471	416.544	3625.477	209.869	4849.310	495.190	--undefined--	--undefined--
283	0.307	0.0001	4	1313.760	385.411	2482.592	420.011	3630.463	194.444	4854.880	464.519	--undefined--	--undefined--
284	0.308	0.0001	4	1307.661	373.839	2488.462	445.605	3638.089	184.037	4863.746	428.560	--undefined--	--undefined--
285	0.309	0.0002	4	1304.734	391.728	2509.875	479.026	3645.960	177.212	4872.260	396.754	--undefined--	--undefined--
286	0.310	0.0002	4	1311.407	426.078	2543.457	493.882	3651.609	173.709	4878.745	377.760	--undefined--	--undefined--
287	0.311	0.0002	4	1324.974	448.485	2574.184	481.672	3653.592	174.950	4883.131	377.023	--undefined--	--undefined--
288	0.312	0.0002	4	1328.965	446.606	2593.732	459.690	3651.951	182.322	4885.932	397.097	--undefined--	--undefined--
289	0.313	0.0003	5	217.415	733.021	1314.459	434.072	2604.945	441.709	3647.787	195.854	4887.454	438.315
290	0.314	0.0003	5	260.520	608.383	1285.437	416.003	2613.732	430.153	3642.703	214.005	4886.701	496.691
291	0.315	0.0003	5	277.636	527.172	1250.853	386.080	2624.621	422.123	3638.038	234.035	4878.976	557.389
292	0.316	0.0003	5	288.672	459.736	1219.994	340.132	2638.553	414.893	3633.597	253.078	4854.101	589.145
293	0.317	0.0004	5	299.401	394.153	1197.772	284.298	2652.621	409.299	3627.153	268.936	4805.197	560.608
294	0.318	0.0004	5	310.822	332.582	1183.677	230.899	2662.940	409.229	3616.580	278.800	4743.959	478.246
295	0.319	0.0004	5	323.187	280.800	1174.964	189.142	2667.483	418.450	3602.694	279.821	4690.763	383.116
296	0.320	0.0004	5	337.141	241.109	1169.092	161.775	2666.375	439.252	3588.587	273.253	4655.010	306.938
297	0.321	0.0004	5	353.216	211.966	1164.276	147.489	2660.841	471.778	3576.572	263.677	4635.198	256.748
298	0.322	0.0004	5	371.313	190.053	1159.343	143.824	2652.414	512.317	3567.067	254.776	4626.550	227.201
299	0.323	0.0004	5	390.612	172.177	1153.460	148.630	2643.133	552.232	3559.504	248.321	4624.974	211.374
300	0.324	0.0004	5	409.870	156.286	1145.864	160.371	2635.986	579.430	3553.240	245.311	4627.854	204.216
301	0.325	0.0006	5	427.861	141.671	1135.693	178.021	2634.401	582.780	3547.896	246.452	4633.824	202.523
302	0.326	0.0006	5	443.743	128.633	1121.977	200.893	2640.513	557.371	3543.486	251.403	4642.382	203.965
303	0.327	0.0006	5	457.181	117.868	1103.823	228.329	2653.630	506.776	3540.447	257.695	4653.466	206.194
304	0.328	0.0007	5	468.236	109.859	1080.791	258.996	2670.668	440.829	3539.346	260.734	4666.899	206.686
305	0.329	0.0007	5	477.174	104.562	1053.463	289.996	2688.285	371.127	3540.309	255.998	4681.896	203.556
306	0.330	0.0007	5	484.283	101.374	1023.986	316.682	2704.548	307.062	3542.775	242.233	4697.046	196.573
307	0.331	0.0007	5	489.767	99.285	995.928	333.940	2718.903	253.898	3545.882	222.314	4710.816	187.207
308	0.332	0.001	5	493.759	97.196	973.046	338.469	2731.348	213.076	3548.973	200.953	4722.047	177.645
309	0.333	0.001	5	496.437	94.333	957.645	330.427	2741.921	183.688	3551.769	182.060	4730.068	169.762
310	0.334	0.001	5	498.129	90.502	949.861	313.091	2750.582	163.941	3554.294	167.809	4734.531	164.672
311	0.335	0.001	5	499.255	86.020	948.263	290.950	2757.214	152.022	3556.735	158.957	4735.260	162.728
312	0.336	0.001	5	500.182	81.410	950.942	267.803	2761.636	146.389	3559.329	155.410	4732.276	163.611
313	0.337	0.001	5	501.129	77.100	956.225	245.847	2763.653	145.712	3562.279	156.518	4726.013	166.387
314	0.338	0.001	5	502.173	73.273	962.888	225.719	2763.175	148.709	3565.702	161.112	4717.624	169.667
315	0.339	0.001	5	503.301	69.882	970.104	207.030	2760.385	154.091	3569.585	167.516	4709.061	172.035
316	0.340	0.001	5	504.466	66.752	977.367	189.033	2755.843	160.729	3573.747	173.826	4702.588	172.621
317	0.341	0.001	5	505.630	63.684	984.406	171.131	2750.388	167.943	3577.782	178.492	4699.840	171.342
318	0.342	0.001	5	506.781	60.543	991.126	153.157	2744.844	175.666	3581.087	180.850	4701.120	168.617
319	0.343	0.001	5	507.939	57.300	997.542	135.428	2739.762	184.316	3583.044	181.197	4705.451	164.938
320	0.344	0.001	5	509.151	54.057	1003.718	118.613	2735.358	194.489	3583.262	180.362	4711.184	160.635
321	0.345	0.001	5	510.470	51.011	1009.726	103.456	2731.672	206.560	3581.693	179.103	4716.672	155.812
322	0.346	0.001	5	511.940	48.387	1015.617	90.483	2728.796	220.265	3578.611	177.658	4720.799	150.376
323	0.347	0.002	5	513.579	46.337	1021.403	79.837	2727.004	234.343	3574.531	175.618	4723.368	144.145
324	0.348	0.002	5	515.379	44.904	1027.063	71.302	2726.685	246.589	3570.105	172.187	4725.217	137.061
325	0.349	0.002	5	517.310	44.023	1032.559	64.461	2728.070	254.650	3565.939	166.709	4727.839	129.340
326	0.350	0.002	5	519.333	43.574	1037.847	58.863	2730.952	257.221	3562.376	159.057	4732.579	121.401
327	0.351	0.002	5	521.402	43.412	1042.886	54.119	2734.664	254.632	3559.404	149.617	4739.963	113.671
328	0.352	0.002	5	523.474	43.397	1047.643	49.943	2738.392	248.387	3556.816	139.042	4749.619	106.499
329	0.353	0.002	5	525.511	43.409	1052.097	46.158	2741.566	240.230	3554.473	128.045	4760.661	100.213
330	0.354	0.002	5	527.486	43.366	1056.243	42.684	2744.076	231.433	3552.462	117.290	4772.131	95.186
331	0.355	0.002	5	529.384	43.229	1060.081	39.506	2746.246	222.475	3551.081	107.305	4783.261	91.826
332	0.356	0.002	5	531.206	42.985	1063.621	36.634	2748.660	213.026	3550.717	98.436	4793.543	90.522
333	0.357	0.002	5	532.962	42.626	1066.874	34.066	2751.919	202.201	3551.701	90.825	4802.689	91.584
334	0.358	0.002	5	534.674	42.140	1069.861	31.790	2756.373	189.131	3554.198	84.446	4810.543	95.185
335	0.359	0.002	5	536.372	41.526	1072.618	29.791	2761.949	173.694	3558.150	79.178	4816.994	101.280
336	0.360	0.002	5	538.094	40.821	1075.212	28.080	2768.198	156.910	3563.285	74.907	4821.901	109.472
337	0.361	0.002	5	539.880	40.113	1077.743	26.698	2774.573	140.605	3569.183	71.621	4825.097	118.854
338	0.362	0.002	5	541.779	39.539	1080.330	25.706	2780.714	126.606	3575.363	69.428	4826.513	127.962
339	0.363	0.002	5	543.834	39.243	1083.091	25.162	2786.563	116.130	3581.380	68.502	4826.409	135.131
340	0.364	0.002	5	546.074	39.319	1086.106	25.084	2792.320	109.615	3586.916	69.001	4825.506	139.331
341	0.365	0.002	5	548.498	39.748	1089.380	25.405	2798.312	106.834	3591.859	71.001	4824.723	140.831
342	0.366	0.002	5	551.065	40.355	1092.827	25.954	2804.858	107.033	3596.320	74.477	4824.674	140.920
343	0.367	0.003	5	553.699	40.834	1096.293	26.467	2812.141	109.066	3600.580	79.344	4825.421	141.042
344	0.368	0.003	5	556.303	40.850	1099.610	26.669	2820.119	111.565	3604.988	85.523	4826.633	142.243
345	0.369	0.003	5	558.790	40.163	1102.672	26.381	2828.477	113.209	3609.857	92.992	4827.838	145.142
346	0.370	0.003	5	561.111	38.729	1105.480	25.592	2836.654	113.042	3615.381	101.759	4828.565	150.117
347	0.371	0.003	5	563.260	36.707	1108.133	24.452	2843.957	110.725	3621.555	111.742	4828.338	157.412
348	0.372	0.003	5	565.275	34.404	1110.792	23.209	2849.738	106.613	3628.057	122.501	4826.623	167.052
349	0.373	0.003	5	567.207	32.160	1113.623	22.115	2853.603	101.614	3634.121	132.900	4822.809	178.534
350	0.374	0.003	5	569.098	30.244	1116.748	21.355	2855.553	96.866	3638.581	141.042	4816.320	190.448
351	0.375	0.003	5	570.960	28.787	1120.218	21.009	2855.969	93.357	3640.349	145.037	4806.925	200.579
352	0.376	0.003	5	572.773	27.780	1124.004	21.044	2855.449	91.695	3639.137	144.386	4795.107	206.940
353	0.377	0.003	5	574.498	27.127	1128.018	21.348	2854.588	92.184	3635.603	140.405	4782.083	209.029
354	0.378	0.003	5	576.101	26.705	1132.137	21.764	2853.806	95.082	3630.695	135.045	4769.327	207.896
355	0.379	0.003	5	577.567	26.407	1136.248	22.126	2853.252	100.827	3625.007	129.526	4757.987	205.073
356	0.380	0.003	5	578.909	26.152	1140.277	22.292	2852.788	110.158	3618.691	123.883	4748.713	201.591
357	0.381	0.003	5	580.169	25.901	1144.219	22.172	2851.976	124.204	3611.769	117.228	4741.826	197.708
358	0.382	0.003	5	581.409	25.667	1148.134	21.755	2850.055	144.548	3604.551	108.424	4737.560	193.189
359	0.383	0.003	5	582.700	25.526	1152.130	21.118	2845.935	173.229	3597.857	96.978	4736.144	187.766
360	0.384	0.003	5	584.106	25.618	1156.335	20.404	2838.312	212.476	3592.795	83.647	4737.676	181.500
361	0.385	0.003	5	585.672	26.133	1160.854	19.775	2826.123	263.656	3590.168	70.154	4741.903	174.928
362	0.386	0.003	5	587.415	27.235	1165.742	19.329	2809.539	324.703	3590.083	58.276	4748.140	169.086
363	0.387	0.003	5	589.315	28.989	1170.983	19.040	2791.233	386.907	3592.050	49.182	4755.432	165.485
364	0.388	0.003	5	591.318	31.306	1176.502	18.772	2776.174	436.059	3595.339	43.301	4762.841	165.874
365	0.389	0.003	5	593.353	34.023	1182.190	18.384	2768.521	461.277	3599.284	40.451	4769.642	171.777
366	0.390	0.003	5	595.351	37.024	1187.953	17.837	2768.595	462.669	3603.421	40.143	4775.369	184.229
367	0.391	0.003	5	597.253	40.262	1193.732	17.188	2773.660	448.607	3607.454	41.922	4779.769	204.066
368	0.392	0.003	5	599.004	43.689	1199.500	16.527	2780.608	428.567	3611.165	45.581	4782.750	232.445
369	0.393	0.003	5	600.547	47.186	1205.263	15.931	2787.448	409.507	3614.348	51.226	4784.402	271.145
370	0.394	0.003	5	601.831	50.543	1211.042	15.460	2793.401	395.770	3616.762	59.263	4785.159	322.538
371	0.395	0.003	5	602.828	53.489	1216.869	15.155	2798.521	390.024	3618.091	70.359	4786.139	389.052
372	0.396	0.003	5	603.554	55.759	1222.772	15.038	2803.302	394.031	3617.898	85.309	4789.610	471.785
373	0.397	0.003	5	604.078	57.171	1228.772	15.103	2808.249	409.074	3615.511	104.734	4799.144	567.761
374	0.398	0.003	5	604.499	57.668	1234.873	15.311	2813.270	436.321	3609.799	128.557	4818.285	665.953
375	0.399	0.003	5	604.906	57.319	1241.064	15.592	2816.962	477.585	3598.978	155.410	4846.645	744.890
376	0.400	0.003	5	605.362	56.338	1247.324	15.881	2816.355	536.224	3581.078	182.027	4876.412	778.780
377	0.401	0.003	5	605.921	55.125	1253.645	16.165	2807.559	616.378	3555.735	202.945	4896.876	754.550
378	0.402	0.003	5	606.642	54.181	1260.053	16.487	2787.124	719.261	3526.193	212.689	4904.365	683.793
379	0.403	0.003	5	607.574	53.918	1266.590	16.908	2754.176	839.050	3498.347	211.017	4902.862	593.278
380	0.404	0.003	5	608.732	54.486	1273.295	17.447	2712.438	963.177	3476.566	204.309	4897.034	506.329
381	0.405	0.003	5	610.080	55.734	1280.175	18.052	2669.731	1076.767	3461.432	200.532	4889.356	434.890
382	0.406	0.003	5	611.541	57.307	1287.196	18.628	2635.370	1167.257	3451.112	205.642	4881.093	382.339
383	0.407	0.003	5	613.036	58.848	1294.301	19.081	2617.845	1228.628	3443.197	224.379	4873.256	348.449
384	0.408	0.003	5	614.522	60.196	1301.423	19.360	2623.851	1262.638	3435.438	262.856	4866.780	332.529
385	0.409	0.003	5	616.008	61.424	1308.491	19.467	2659.157	1272.643	3425.631	332.186	4862.321	334.909
386	0.410	0.003	5	617.529	62.742	1315.413	19.430	2731.090	1249.187	3410.964	456.358	4859.880	357.686
387	0.411	0.003	5	619.123	64.384	1322.087	19.293	2849.390	1132.559	3389.411	705.033	4858.242	405.485
388	0.412	0.003	5	620.826	66.572	1328.427	19.107	2922.022	762.527	3467.678	1243.214	4853.898	487.260
389	0.413	0.003	5	622.676	69.525	1334.411	18.929	2876.373	509.205	3751.982	1698.970	4837.293	622.333
390	0.414	0.003	5	624.693	73.420	1340.077	18.817	2835.366	364.997	4237.463	2055.180	4762.329	860.726
391	0.415	0.003	4	626.825	78.282	1345.499	18.823	2804.748	271.361	4537.497	765.151	--undefined--	--undefined--
392	0.416	0.003	4	628.907	83.870	1350.743	18.982	2782.942	209.425	4499.771	548.105	--undefined--	--undefined--
393	0.417	0.003	4	630.655	89.631	1355.846	19.321	2767.988	169.054	4496.567	425.882	--undefined--	--undefined--
394	0.418	0.003	4	631.728	94.829	1360.802	19.861	2758.088	143.742	4500.990	351.370	--undefined--	--undefined--
395	0.419	0.003	4	631.861	98.838	1365.580	20.638	2751.877	129.365	4507.232	306.228	--undefined--	--undefined--
396	0.420	0.003	4	630.965	101.462	1370.146	21.705	2748.479	123.533	4514.039	281.755	--undefined--	--undefined--
397	0.421	0.003	4	629.135	103.034	1374.489	23.137	2747.430	125.085	4522.144	272.971	--undefined--	--undefined--
398	0.422	0.003	4	626.546	104.226	1378.627	25.007	2748.499	133.684	4533.640	275.398	--undefined--	--undefined--
399	0.423	0.003	4	623.322	105.762	1382.602	27.372	2751.419	149.504	4551.245	281.522	--undefined--	--undefined--
400	0.424	0.003	5	619.463	108.237	1386.452	30.260	2755.520	173.005	4575.223	278.239	4706.449	3495.512
401	0.425	0.003	5	614.826	112.090	1390.184	33.669	2759.284	204.796	4062.362	2796.177	4599.318	256.044
402	0.426	0.003	5	609.139	117.649	1393.751	37.555	2759.811	245.518	3729.838	2240.400	4616.808	222.420
403	0.427	0.003	5	602.042	125.160	1397.051	41.803	2752.177	295.137	3520.475	1766.146	4627.694	189.584
404	0.428	0.003	5	593.137	134.791	1399.974	46.162	2728.948	348.731	3390.447	1347.353	4634.826	163.042
405	0.429	0.003	5	582.070	146.596	1402.477	50.228	2684.557	385.178	3322.558	994.129	4640.438	143.667
406	0.430	0.003	5	568.633	160.458	1404.670	53.527	2629.594	377.803	3293.561	731.266	4645.777	130.815
407	0.431	0.003	5	552.886	175.988	1406.821	55.696	2581.912	335.191	3277.550	549.785	4651.493	123.664
408	0.432	0.003	5	535.287	192.435	1409.283	56.625	2546.841	281.397	3263.792	423.368	4657.992	121.676
409	0.433	0.003	5	516.770	208.778	1412.368	56.478	2522.352	230.719	3250.597	333.377	4665.637	124.761
410	0.434	0.003	5	498.624	224.077	1416.259	55.600	2505.325	188.637	3238.399	268.830	4674.848	133.372
411	0.435	0.003	5	480.789	239.242	1421.410	54.273	2492.261	153.746	3226.792	219.485	4687.294	150.366
412	0.436	0.003	5	467.205	252.636	1426.744	53.105	2483.346	131.026	3217.865	188.728	4701.563	174.921
413	0.437	0.003	5	456.516	267.643	1432.295	52.299	2475.998	115.856	3210.458	168.661	4719.285	210.872
414	0.438	0.003	5	448.349	287.200	1437.626	52.143	2469.222	107.085	3204.337	157.262	4741.241	261.733
415	0.439	0.002	5	441.884	314.612	1442.321	52.947	2462.201	103.912	3199.282	153.286	4768.322	331.227
416	0.440	0.002	5	435.940	352.767	1446.073	55.049	2454.208	105.879	3195.168	156.030	4801.479	421.668
417	0.441	0.002	5	428.975	402.655	1448.741	58.769	2444.577	112.682	3192.000	165.022	4841.243	530.887
418	0.442	0.002	5	420.387	455.271	1450.258	63.768	2433.931	122.624	3190.066	178.092	4882.009	637.958
419	0.443	0.002	5	407.921	511.028	1451.161	71.206	2419.906	136.544	3189.311	196.750	4926.702	746.632
420	0.444	0.002	5	394.489	547.530	1451.744	80.910	2403.897	151.423	3190.757	217.998	4960.685	824.744
421	0.445	0.002	5	384.696	550.535	1452.707	93.513	2387.549	164.705	3195.773	239.515	4973.447	862.131
422	0.446	0.002	5	380.842	522.857	1454.855	110.560	2373.907	175.357	3205.695	259.369	4963.719	870.534
423	0.447	0.002	5	380.806	484.157	1459.321	135.338	2367.012	185.586	3220.032	276.260	4938.396	876.115
424	0.448	0.002	5	381.951	455.850	1468.297	173.353	2370.770	200.574	3235.171	290.277	4904.869	902.668
425	0.449	0.002	5	383.782	448.270	1485.439	229.036	2386.960	225.472	3247.033	304.871	4869.628	961.914
426	0.450	0.002	5	386.953	458.717	1513.438	294.250	2414.096	260.721	3255.218	324.521	4839.827	1050.135
427	0.451	0.002	5	391.423	479.735	1547.422	341.110	2449.145	298.629	3262.016	348.755	4820.018	1146.314
428	0.452	0.002	5	397.001	505.802	1574.889	348.617	2488.672	326.839	3269.015	373.007	4808.737	1224.150
429	0.453	0.002	5	405.571	524.628	1589.555	325.098	2528.995	338.132	3276.519	394.019	4802.192	1271.471
430	0.454	0.001	5	419.252	514.377	1594.512	286.372	2567.797	331.627	3284.810	409.478	4798.532	1287.021
431	0.455	0.001	5	434.957	464.107	1593.437	241.397	2603.674	309.860	3294.076	416.952	4798.608	1275.847
432	0.456	0.001	5	445.963	387.351	1587.556	195.387	2635.676	279.436	3303.724	416.447	4805.415	1254.048
433	0.457	0.001	5	449.591	307.142	1577.977	152.364	2664.017	248.609	3312.810	411.224	4822.620	1243.771
434	0.458	0.001	5	447.990	238.736	1567.252	115.280	2689.856	223.576	3320.730	405.751	4853.787	1264.804
435	0.459	0.001	5	444.284	187.452	1558.510	85.889	2714.578	207.630	3327.373	404.221	4903.358	1333.426
436	0.460	0.001	5	440.504	152.833	1553.736	64.426	2739.415	201.591	3333.081	409.981	4978.747	1462.109
437	0.461	0.001	5	437.472	131.836	1553.003	49.648	2764.952	203.865	3338.365	424.769	5090.666	1650.355
438	0.462	0.001	5	435.252	120.552	1555.019	39.638	2790.044	210.959	3342.660	448.285	5233.442	1862.955
439	0.463	0.001	5	433.568	115.224	1558.140	32.721	2811.199	219.885	3342.724	478.920	5252.009	2012.760
440	0.464	0.001	5	432.102	112.934	1561.078	27.803	2824.298	230.663	3332.772	514.216	5019.339	1999.726
441	0.465	0.001	5	430.670	111.942	1563.124	24.236	2827.405	245.409	3307.073	548.737	4752.359	1807.288
442	0.466	0.001	5	429.253	111.550	1564.032	21.617	2821.399	265.806	3263.937	570.968	4544.035	1520.328
443	0.467	0.001	5	427.901	111.621	1563.814	19.692	2808.437	292.125	3209.492	567.432	4405.347	1238.028
444	0.468	0.001	5	426.644	112.195	1562.596	18.313	2790.456	322.934	3155.753	536.182	4317.560	1012.467
445	0.469	0.001	5	425.457	113.327	1560.534	17.396	2769.215	354.398	3112.219	490.371	4261.157	851.828
446	0.470	0.001	5	424.286	115.057	1557.779	16.888	2747.578	381.366	3081.371	446.955	4224.644	746.536
447	0.471	0.001	5	423.075	117.405	1554.461	16.754	2729.513	400.896	3060.893	416.743	4202.664	685.397
448	0.472	0.001	5	421.807	120.393	1550.685	16.962	2718.304	412.689	3047.860	403.599	4193.296	660.608
449	0.473	0.001	5	420.515	124.067	1546.539	17.486	2715.601	416.127	3040.858	408.630	4196.824	668.492
450	0.474	0.001	5	419.281	128.488	1542.103	18.299	2721.060	408.505	3040.439	432.549	4215.324	708.722
451	0.475	0.001	5	418.201	133.621	1537.451	19.369	2731.361	386.902	3049.205	473.640	4252.343	781.927
452	0.476	0.001	5	417.358	139.232	1532.659	20.647	2740.882	354.353	3069.639	522.249	4311.960	885.038
453	0.477	0.001	5	416.804	144.951	1527.819	22.088	2746.431	320.587	3098.930	563.517	4396.520	1005.923
454	0.478	0.001	5	416.571	150.535	1523.061	23.673	2748.842	292.591	3129.818	590.996	4503.405	1123.667
455	0.479	0.001	5	416.690	156.121	1518.565	25.432	2749.920	271.485	3157.332	608.960	4624.446	1219.139
456	0.480	0.001	5	417.190	162.252	1514.555	27.456	2750.924	255.596	3181.526	624.224	4751.010	1287.491
457	0.481	0.001	5	418.089	169.781	1511.268	29.902	2752.522	242.508	3206.934	640.020	4881.831	1342.023
458	0.482	0.001	5	419.366	179.899	1508.956	33.027	2754.905	229.745	3243.326	651.010	5033.923	1413.829
459	0.483	0.001	5	420.933	194.442	1507.905	37.294	2758.271	216.075	3305.033	632.264	5314.512	1551.851
460	0.484	0.001	4	422.482	216.633	1508.509	43.796	2765.153	205.206	3389.608	542.872	--undefined--	--undefined--
461	0.485	0.001	4	423.175	254.831	1511.627	55.640	2783.729	205.822	3459.468	409.211	--undefined--	--undefined--
462	0.486	0.001	4	420.928	329.576	1519.558	80.712	2823.492	220.226	3500.421	316.242	--undefined--	--undefined--
463	0.487	0.001	4	409.066	471.057	1536.439	135.584	2878.929	238.098	3528.036	281.806	--undefined--	--undefined--
464	0.488	0.001	4	368.261	708.528	1567.549	249.968	2928.995	253.803	3551.723	282.903	--undefined--	--undefined--
465	0.489	0.001	4	252.693	1037.321	1620.551	451.545	2963.541	272.722	3573.365	299.762	--undefined--	--undefined--
466	0.490	0.001	3	1711.442	689.746	2983.196	291.219	3590.294	316.358	--undefined--	--undefined--	--undefined--	--undefined--
467	0.491	0.001	4	148.363	1245.280	1817.741	808.698	2987.885	302.100	3597.708	325.364	--undefined--	--undefined--
468	0.492	0.001	4	256.533	1126.233	1873.607	808.635	2980.491	307.067	3596.378	330.554	--undefined--	--undefined--
469	0.493	0.001	5	308.052	1049.452	1881.873	772.896	2965.874	309.412	3590.013	335.443	4804.897	2490.593
470	0.494	0.001	5	354.526	981.449	1865.480	717.463	2945.724	309.712	3580.370	340.197	4563.662	1941.698
471	0.495	0.001	5	398.952	907.561	1843.898	655.182	2925.629	308.112	3571.245	342.579	4484.383	1578.789
472	0.496	0.001	5	441.493	815.435	1823.223	587.322	2905.088	305.668	3564.002	343.105	4457.234	1302.400
473	0.497	0.001	5	474.953	710.623	1804.479	519.822	2884.315	303.608	3560.295	343.936	4453.331	1087.735
474	0.498	0.001	5	494.503	604.251	1785.640	457.074	2862.960	302.841	3560.877	348.276	4458.416	918.981
475	0.499	0.0010	5	500.132	506.389	1764.142	401.428	2840.578	303.635	3565.742	359.148	4465.279	785.006
476	0.500	0.0008	5	496.244	429.706	1740.961	357.374	2819.286	305.379	3573.550	376.725	4470.257	686.131
477	0.501	0.0008	5	485.293	354.968	1708.486	311.681	2793.309	307.996	3586.567	409.717	4473.361	589.139
478	0.502	0.0005	5	474.121	306.311	1678.729	278.436	2772.685	310.333	3599.935	448.966	4473.427	522.682
479	0.503	0.0005	5	460.670	261.999	1642.475	243.563	2751.646	313.924	3618.616	512.199	4470.779	458.407
480	0.504	0.0004	5	450.348	234.876	1614.153	218.798	2739.221	318.496	3636.678	577.877	4466.660	418.236
481	0.505	0.0004	5	440.318	213.470	1586.962	196.493	2732.618	325.767	3660.135	657.151	4460.636	389.777
482	0.506	0.0004	5	431.718	199.255	1564.917	179.597	2734.408	334.757	3687.567	727.470	4453.912	379.679
483	0.507	0.0004	5	424.357	190.809	1548.122	168.081	2745.023	342.953	3716.151	767.037	4448.051	389.155
484	0.508	0.0004	5	417.865	186.974	1536.100	161.828	2763.707	345.240	3740.693	761.980	4445.523	417.834
485	0.509	0.0004	5	411.713	186.716	1528.146	160.912	2786.870	335.851	3757.028	712.751	4449.681	462.271
486	0.510	0.0004	5	405.264	189.169	1523.732	166.098	2808.769	313.958	3763.152	631.898	4463.331	513.741
487	0.511	0.0004	5	397.904	193.525	1522.911	179.348	2825.299	285.505	3760.222	541.300	4485.012	560.463
488	0.512	0.0004	5	389.315	198.234	1526.603	204.230	2835.717	258.485	3753.262	461.990	4508.014	596.234
489	0.513	0.0004	5	379.892	200.154	1536.989	246.602	2841.151	238.781	3748.088	405.446	4524.443	622.798
490	0.514	0.0004	5	370.894	194.915	1558.255	315.503	2842.987	229.803	3748.885	375.495	4528.370	645.213
491	0.515	0.0004	5	363.684	179.019	1597.542	422.889	2842.278	233.834	3758.446	373.242	4516.772	670.254
492	0.516	0.0004	5	358.468	152.544	1665.438	578.991	2839.694	253.285	3779.598	400.216	4488.990	707.999
493	0.517	0.0004	5	354.218	120.272	1774.282	779.287	2835.569	291.043	3817.790	458.609	4443.589	772.908
494	0.518	0.0004	5	350.083	89.639	1930.757	985.412	2830.033	348.682	3886.801	542.032	4372.210	887.756
495	0.519	0.0004	5	346.191	66.274	2118.714	1124.979	2823.836	421.603	4008.788	562.441	4262.171	1141.146
496	0.520	0.0001	5	342.962	51.449	2286.800	1157.429	2820.048	493.518	4081.262	436.512	4228.933	1575.301
497	0.521	0.0001	5	340.471	43.454	2388.404	1146.976	2823.989	539.842	4104.999	360.722	4267.428	1921.279
498	0.522	0.0006	5	338.559	39.982	2428.999	1173.372	2840.362	549.842	4117.702	322.516	4314.943	2177.685
499	0.523	0.0006	5	337.068	39.269	2436.889	1244.924	2870.975	534.910	4126.496	304.269	4356.139	2424.406
500	0.524	0.0006	5	335.916	40.173	2432.942	1343.161	2912.286	504.756	4133.105	296.869	4409.654	2744.804
501	0.525	0.0006	5	335.068	41.945	2429.659	1453.028	2956.224	462.585	4137.525	295.456	4529.300	3216.553
502	0.526	0.0006	5	334.495	44.057	2435.982	1555.286	2995.200	414.818	4139.433	297.237	4938.380	3980.302
503	0.527	0.0006	4	334.156	46.103	2453.880	1622.476	3026.035	369.680	4139.006	299.732	--undefined--	--undefined--
504	0.528	0.0006	4	333.986	47.809	2470.911	1642.399	3049.043	331.458	4137.284	300.185	--undefined--	--undefined--
505	0.529	0.0006	4	333.911	49.069	2469.945	1643.247	3065.449	300.317	4136.079	296.516	--undefined--	--undefined--
506	0.530	0.0006	4	333.859	49.967	2441.709	1669.178	3076.192	275.026	4137.116	288.809	--undefined--	--undefined--
507	0.531	0.0006	4	333.771	50.703	2376.724	1747.281	3081.917	254.551	4140.916	279.309	--undefined--	--undefined--
508	0.532	0.0006	4	333.596	51.482	2254.436	1863.762	3083.121	238.386	4146.676	270.659	--undefined--	--undefined--
509	0.533	0.0006	4	333.283	52.422	2065.346	1916.526	3080.024	226.762	4153.138	264.408	--undefined--	--undefined--
510	0.534	0.0006	5	332.797	53.548	1877.574	1819.496	3072.225	220.703	4159.364	260.999	4666.143	3548.652
511	0.535	0.0006	5	332.136	54.865	1747.202	1666.980	3058.361	221.471	4165.096	260.645	4344.904	2708.471
512	0.536	0.0006	5	331.346	56.423	1666.377	1541.037	3036.076	228.960	4171.088	263.951	4195.249	2167.107
513	0.537	0.0006	5	330.486	58.255	1618.924	1462.103	3003.348	238.682	4078.097	1742.396	4179.681	270.639
514	0.538	0.0006	5	329.593	60.243	1595.205	1423.228	2962.757	240.780	3971.018	1393.717	4194.243	273.921
515	0.539	0.0006	5	328.686	62.118	1593.005	1410.780	2924.076	229.507	3871.173	1140.157	4212.495	258.500
516	0.540	0.0006	5	327.779	63.618	1613.807	1414.396	2896.219	211.333	3783.708	980.281	4224.833	225.837
517	0.541	0.0006	5	326.854	64.517	1656.588	1420.196	2880.183	194.566	3713.963	879.415	4229.562	193.667
518	0.542	0.0006	5	325.863	64.694	1715.344	1406.742	2872.793	181.411	3667.020	810.832	4230.848	170.501
519	0.543	0.0006	5	324.783	64.329	1779.167	1355.671	2871.034	170.410	3645.969	760.611	4231.869	156.430
520	0.544	0.0006	5	323.636	63.951	1834.406	1264.359	2872.763	159.691	3649.185	718.440	4234.086	149.127
521	0.545	0.0006	5	322.461	64.247	1870.020	1147.045	2876.289	148.265	3670.654	675.455	4238.012	146.265
522	0.546	0.0006	5	321.276	65.795	1881.930	1022.923	2880.298	136.202	3702.416	627.364	4243.713	145.995
523	0.547	0.0006	5	320.061	68.843	1872.483	904.450	2884.060	124.197	3737.668	575.477	4250.984	146.889
524	0.548	0.0006	5	318.760	73.232	1847.426	795.653	2887.494	112.978	3772.395	524.091	4259.372	147.910
525	0.549	0.0006	5	317.313	78.424	1813.443	696.615	2890.997	102.978	3805.086	477.654	4268.153	148.514
526	0.550	0.0006	5	315.688	83.657	1776.638	607.414	2895.158	94.291	3835.795	439.403	4276.396	148.794
527	0.551	0.0006	5	313.904	88.194	1741.646	529.278	2900.438	86.778	3865.420	410.916	4283.146	149.528
528	0.552	0.0006	5	312.033	91.555	1711.343	463.944	2906.851	80.246	3895.230	391.928	4287.677	152.032
529	0.553	0.0006	5	310.004	93.774	1685.239	408.906	2914.379	74.174	3929.381	379.443	4289.747	158.721
530	0.554	0.0006	5	308.250	94.756	1668.133	374.130	2920.523	69.809	3962.842	371.122	4289.263	170.468
531	0.555	0.0006	5	306.660	95.153	1657.471	354.505	2924.692	67.028	3997.752	359.750	4287.421	189.647
532	0.556	0.0006	5	305.266	95.248	1652.886	349.693	2926.070	66.242	4031.582	338.268	4286.303	218.116
533	0.557	0.0006	5	304.063	95.007	1653.793	358.967	2924.404	67.671	4058.985	301.761	4290.231	255.112
534	0.558	0.0006	5	303.024	94.130	1659.483	381.448	2919.952	71.319	4073.777	256.792	4304.019	289.754
535	0.559	0.0006	5	302.107	92.322	1669.318	416.616	2913.381	77.078	4077.153	218.544	4324.988	306.081
536	0.560	0.0006	5	301.271	89.548	1683.013	464.900	2905.669	84.858	4075.221	192.228	4345.727	302.492
537	0.561	0.0006	5	300.487	86.065	1700.898	527.957	2897.975	94.644	4071.681	176.492	4361.686	286.989
538	0.562	0.0006	5	299.742	82.242	1724.036	608.258	2891.390	106.344	4067.881	170.166	4371.252	267.816
539	0.563	0.0006	5	299.031	78.344	1754.120	707.889	2886.575	119.391	4064.088	173.180	4374.425	250.470
540	0.564	0.0006	5	298.341	74.455	1793.107	827.173	2883.412	132.389	4060.171	186.247	4371.980	237.364
541	0.565	0.0006	5	297.654	70.559	1842.788	964.168	2880.947	143.397	4055.901	210.742	4364.921	228.480
542	0.566	0.0006	5	296.957	66.644	1904.536	1115.461	2877.862	150.984	4050.985	248.872	4354.199	222.221
543	0.567	0.0006	5	296.247	62.757	1979.230	1277.334	2873.164	155.020	4044.834	303.914	4340.738	215.992
544	0.568	0.0006	5	295.540	59.034	2067.095	1446.600	2866.523	156.295	4036.068	379.762	4325.855	206.831
545	0.569	0.0006	5	294.862	55.704	2167.451	1621.080	2858.148	155.570	4022.230	478.654	4311.566	193.263
546	0.570	0.0006	5	294.243	53.063	2278.512	1799.009	2848.599	153.102	4001.044	598.284	4299.500	177.321
547	0.571	0.0006	5	293.701	51.395	2397.217	1975.905	2838.687	148.960	3972.508	732.564	4289.389	162.670
548	0.572	0.0006	5	293.235	50.877	2518.914	2138.713	2829.225	143.669	3939.481	874.414	4279.642	151.368
549	0.573	0.0006	5	292.809	51.512	2637.007	2261.035	2820.564	138.330	3907.551	1018.170	4268.759	143.490
550	0.574	0.0006	5	292.362	53.119	2743.758	2307.704	2812.327	134.009	3884.088	1163.314	4256.110	138.044
551	0.575	0.0006	5	291.821	55.385	2803.631	131.129	2832.152	2252.579	3876.334	1314.869	4242.119	133.879
552	0.576	0.0006	5	291.114	57.954	2793.605	129.295	2894.792	2099.033	3891.523	1472.540	4227.901	130.501
553	0.577	0.0006	5	290.193	60.525	2781.917	127.477	2923.929	1891.120	3934.774	1611.040	4214.573	128.346
554	0.578	0.0006	5	289.027	62.903	2769.013	124.467	2923.477	1692.743	3996.611	1688.867	4202.799	128.337
555	0.579	0.0006	5	287.611	64.999	2755.923	119.502	2907.733	1538.062	4056.814	1694.064	4192.827	131.272
556	0.580	0.0006	5	285.962	66.771	2743.725	112.644	2886.637	1429.565	4102.057	1645.937	4184.839	137.557
557	0.581	0.0006	5	284.125	68.145	2733.078	104.628	2864.988	1360.207	4127.130	1571.037	4179.316	147.247
558	0.582	0.0006	5	282.185	68.927	2724.095	96.419	2846.399	1322.675	4129.569	1491.835	4177.328	160.042
559	0.583	0.0006	5	280.278	68.786	2716.513	88.884	2835.346	1311.271	4106.296	1425.266	4180.648	174.729
560	0.584	0.0006	5	278.576	67.354	2709.938	82.659	2837.936	1322.014	4052.784	1385.731	4191.200	187.601
561	0.585	0.0006	5	277.248	64.442	2704.029	78.103	2862.342	1352.215	3964.587	1387.580	4208.788	191.784
562	0.586	0.0006	5	276.388	60.218	2698.595	75.287	2920.343	1398.565	3837.942	1440.832	4228.988	183.224
563	0.587	0.0006	5	275.982	55.206	2693.630	74.125	3036.591	1445.624	3658.401	1554.781	4246.331	166.755
564	0.588	0.0006	5	275.923	50.057	2689.279	74.654	3243.652	1221.979	3404.431	1986.021	4257.914	150.463
565	0.589	0.0005	5	276.070	45.308	2685.724	77.275	3244.414	920.153	3385.714	2525.730	4262.908	139.479
566	0.590	0.0005	5	276.293	41.268	2683.032	82.677	3226.425	788.266	3423.094	2908.731	4261.759	135.203
567	0.591	0.0005	5	276.495	38.020	2681.088	91.541	3209.612	728.681	3491.118	3208.793	4256.106	136.576
568	0.592	0.0005	5	276.609	35.475	2679.580	104.252	3195.730	711.324	3566.415	3421.805	4248.472	141.701
569	0.593	0.0005	5	276.586	33.430	2678.001	120.590	3186.154	720.442	3618.410	3526.414	4241.610	149.075
570	0.594	0.0005	5	276.395	31.650	2675.668	139.286	3183.943	744.961	3622.024	3511.993	4237.891	157.856
571	0.595	0.0005	5	276.019	29.943	2671.898	157.670	3194.324	774.230	3569.846	3400.302	4238.894	167.297
572	0.596	0.0005	5	275.464	28.204	2666.545	172.269	3222.525	795.438	3472.269	3242.362	4245.010	176.029
573	0.597	0.0005	5	274.754	26.413	2660.696	180.799	3267.592	794.738	3350.473	3090.490	4254.944	182.204
574	0.598	0.0005	5	273.932	24.611	2656.569	183.989	3231.560	2967.027	3318.311	769.190	4265.827	184.925
575	0.599	0.0006	5	273.058	22.896	2656.478	184.881	3136.136	2858.079	3362.580	736.225	4274.625	185.361
576	0.600	0.0006	5	272.204	21.425	2661.996	186.368	3066.349	2745.296	3397.564	716.283	4279.776	185.743
577	0.601	0.0006	5	271.446	20.403	2673.791	189.529	3009.523	2628.215	3426.584	716.809	4281.624	187.653
578	0.602	0.0007	5	270.902	20.056	2689.600	193.376	2953.107	2522.059	3451.877	731.804	4281.934	191.158
579	0.603	0.0007	5	270.517	20.551	2710.793	198.489	2866.986	2384.941	3484.016	755.986	4283.343	197.192
580	0.604	0.0007	5	270.398	22.237	2733.407	207.148	2739.372	2164.232	3528.327	775.907	4289.214	206.239
581	0.605	0.0007	5	270.574	25.405	2572.975	1829.384	2756.826	222.263	3586.153	767.210	4302.767	218.686
582	0.606	0.0009	5	271.073	30.344	2402.014	1461.089	2781.778	236.127	3639.375	718.606	4325.030	232.544
583	0.607	0.0009	5	271.954	37.324	2260.806	1154.682	2802.047	236.932	3673.699	657.456	4353.518	244.849
584	0.608	0.0009	5	273.296	46.500	2157.288	931.155	2811.159	231.813	3693.276	607.818	4383.825	254.878
585	0.609	0.0009	5	275.196	57.775	2082.290	772.497	2810.682	230.487	3707.473	574.464	4411.701	263.727
586	0.610	0.0009	5	277.790	70.705	2026.246	658.953	2804.065	235.701	3723.370	553.931	4433.773	272.992
587	0.611	0.0009	5	281.310	84.503	1983.218	576.313	2793.851	247.755	3744.490	541.444	4448.056	284.227
588	0.612	0.0009	5	286.136	98.108	1950.007	515.571	2781.742	267.255	3770.728	533.300	4454.221	298.406
589	0.613	0.0009	5	292.814	110.362	1925.228	471.662	2768.867	295.841	3799.357	528.343	4453.182	315.765
590	0.614	0.0009	5	301.973	120.265	1908.702	442.219	2755.784	335.633	3827.090	528.332	4446.296	336.198
591	0.615	0.0009	5	314.125	127.127	1900.834	426.376	2742.097	386.835	3851.894	536.130	4434.905	359.506
592	0.616	0.0009	5	329.374	130.458	1901.832	423.676	2726.010	442.719	3873.635	552.420	4420.566	385.040
593	0.617	0.0009	5	347.182	129.733	1910.775	433.035	2705.066	485.350	3893.738	573.380	4405.577	411.613
594	0.618	0.001	5	366.370	124.555	1925.328	451.364	2679.356	493.962	3914.076	593.293	4392.339	438.551
595	0.619	0.001	5	385.454	115.357	1943.030	472.066	2653.652	465.768	3935.685	611.126	4381.360	466.219
596	0.620	0.001	5	403.132	103.597	1962.645	486.247	2633.371	418.355	3959.204	631.314	4370.762	495.111
597	0.621	0.001	5	418.587	91.086	1983.506	487.295	2620.349	370.147	3986.432	658.624	4357.720	525.624
598	0.622	0.001	5	431.520	79.321	2004.383	474.121	2613.742	329.644	4021.292	696.130	4338.923	558.450
599	0.623	0.001	5	442.034	69.243	2023.777	450.740	2612.163	298.089	4071.659	748.600	4308.297	592.389
600	0.624	0.001	5	450.440	61.245	2040.766	423.573	2614.531	274.122	4152.796	855.534	4252.640	590.822
601	0.625	0.001	5	457.109	55.288	2055.194	398.606	2620.064	256.045	4209.477	1060.091	4228.196	509.076
602	0.626	0.001	5	462.392	51.058	2067.252	379.946	2627.972	242.422	4231.285	465.621	4243.469	1232.946
603	0.627	0.001	5	466.589	48.103	2077.136	369.815	2637.219	232.186	4242.429	451.143	4268.072	1362.322
604	0.628	0.001	5	469.965	45.955	2085.025	369.021	2646.589	224.642	4258.832	457.519	4277.680	1433.009
605	0.629	0.001	5	472.756	44.218	2091.227	377.257	2654.997	219.348	4268.032	1438.162	4279.714	478.853
606	0.630	0.001	5	475.185	42.607	2096.249	393.276	2661.746	216.001	4240.609	1387.798	4305.209	508.708
607	0.631	0.001	5	477.442	40.938	2100.739	415.159	2666.581	214.444	4200.008	1304.693	4336.181	538.352
608	0.632	0.001	5	479.684	39.112	2105.359	440.692	2669.575	214.667	4151.764	1216.343	4372.015	555.681
609	0.633	0.001	5	482.011	37.094	2110.679	467.773	2671.001	216.751	4103.374	1142.391	4407.955	553.178
610	0.634	0.001	5	484.471	34.901	2117.164	494.660	2671.276	220.790	4060.211	1087.538	4439.740	534.984
611	0.635	0.001	5	487.059	32.591	2125.225	519.887	2670.985	226.887	4023.173	1051.819	4466.734	508.122
612	0.636	0.001	5	489.728	30.239	2135.268	541.860	2670.948	235.235	3991.271	1036.980	4489.657	477.170
613	0.637	0.001	5	492.400	27.919	2147.608	558.385	2672.260	246.177	3963.134	1046.297	4509.143	444.769
614	0.638	0.001	5	494.989	25.698	2162.186	566.551	2676.259	260.103	3937.350	1083.391	4525.534	412.574
615	0.639	0.001	5	497.414	23.634	2178.126	563.334	2684.403	277.002	3912.721	1150.860	4539.029	381.832
616	0.640	0.001	5	499.609	21.772	2193.397	547.061	2697.925	295.625	3888.742	1248.338	4549.818	353.738
617	0.641	0.001	5	501.531	20.138	2205.150	519.145	2717.077	312.851	3866.245	1369.865	4558.070	329.631
618	0.642	0.001	5	503.158	18.737	2210.985	484.431	2740.198	324.842	3847.663	1501.412	4563.820	310.954
619	0.643	0.001	5	504.487	17.559	2210.192	448.883	2763.876	330.293	3836.157	1621.154	4566.969	298.951
620	0.644	0.001	5	505.532	16.583	2203.728	416.686	2784.806	332.193	3833.636	1705.313	4567.541	294.224
621	0.645	0.001	5	506.319	15.802	2193.365	389.509	2801.349	335.780	3838.991	1737.652	4566.131	296.319
622	0.646	0.001	5	506.884	15.227	2181.002	367.547	2813.340	345.740	3847.870	1715.641	4564.197	303.601
623	0.647	0.001	5	507.268	14.895	2168.278	350.723	2821.047	365.163	3854.410	1649.346	4563.754	313.540
624	0.648	0.001	5	507.507	14.859	2156.309	339.322	2824.308	395.491	3854.085	1555.294	4566.427	323.357
625	0.649	0.001	5	507.631	15.182	2145.502	334.110	2822.050	435.919	3845.880	1449.141	4572.523	330.803
626	0.650	0.001	5	507.657	15.924	2135.416	336.103	2812.284	481.436	3832.856	1340.818	4580.889	334.869
627	0.651	0.001	5	507.590	17.128	2124.694	346.034	2793.325	520.415	3821.136	1235.432	4589.531	336.033
628	0.652	0.001	5	507.430	18.812	2111.234	363.192	2766.837	536.586	3816.872	1138.134	4596.318	335.860
629	0.653	0.001	5	507.183	20.973	2093.149	383.655	2739.580	520.235	3822.285	1054.618	4599.487	336.241
630	0.654	0.001	5	506.877	23.608	2070.707	400.297	2719.023	478.390	3834.694	985.967	4598.122	338.608
631	0.655	0.001	5	506.585	26.734	2047.159	407.257	2707.426	428.233	3848.910	927.474	4592.486	343.504
632	0.656	0.001	5	506.429	30.379	2026.377	404.081	2702.337	383.281	3859.981	873.627	4583.766	350.880
633	0.657	0.001	5	506.586	34.568	2010.207	394.245	2700.474	348.915	3865.088	822.673	4573.319	360.886
634	0.658	0.001	5	507.267	39.289	1998.167	381.825	2699.641	325.194	3864.110	776.774	4562.053	374.433
635	0.659	0.001	5	508.672	44.470	1988.537	369.835	2698.787	310.052	3858.772	739.538	4550.340	393.187
636	0.660	0.002	5	510.934	49.970	1979.466	359.928	2697.650	300.964	3851.428	714.110	4538.266	419.200
637	0.661	0.002	5	514.077	55.612	1969.638	352.577	2696.482	295.563	3844.343	702.793	4525.832	454.560
638	0.662	0.002	5	518.018	61.242	1958.526	347.402	2695.833	291.882	3839.553	707.545	4512.990	501.061
639	0.663	0.002	5	522.621	66.777	1946.420	343.577	2696.287	288.584	3838.964	730.636	4499.546	559.561
640	0.664	0.002	5	527.759	72.218	1934.285	340.235	2698.148	285.225	3844.318	775.258	4485.054	628.383
641	0.665	0.002	5	533.358	77.620	1923.458	336.757	2701.206	282.341	3856.556	846.421	4468.861	699.990
642	0.666	0.002	5	539.385	83.026	1915.183	332.833	2704.762	281.244	3873.824	952.629	4450.949	756.447
643	0.667	0.002	5	545.814	88.415	1910.186	328.361	2707.929	283.557	3886.970	1104.354	4435.433	770.518
644	0.668	0.002	5	552.580	93.680	1908.441	323.292	2709.982	290.587	3877.263	1292.743	4433.823	730.577
645	0.669	0.002	5	559.544	98.621	1909.163	317.557	2710.482	302.774	3833.849	1470.806	4450.700	663.378
646	0.670	0.002	5	567.096	103.302	1911.215	310.491	2709.022	321.094	3756.769	1601.903	4478.935	590.308
647	0.671	0.002	5	573.677	106.617	1912.804	303.291	2705.972	340.432	3672.391	1647.423	4504.175	533.049
648	0.672	0.002	5	579.672	108.802	1913.233	295.403	2701.901	359.327	3588.044	1631.528	4524.185	486.892
649	0.673	0.002	5	584.941	109.861	1912.357	286.803	2697.933	374.894	3514.153	1580.601	4537.260	451.934
650	0.674	0.002	5	589.475	109.980	1910.557	277.596	2695.533	384.975	3456.233	1523.801	4543.273	427.646
651	0.675	0.002	5	593.372	109.432	1908.348	268.138	2696.042	388.432	3415.058	1482.450	4543.105	412.874
652	0.676	0.002	5	596.790	108.459	1906.009	258.971	2700.060	384.960	3388.845	1466.109	4538.307	406.005
653	0.677	0.002	5	599.898	107.197	1903.445	250.652	2707.024	374.958	3375.263	1473.334	4530.847	405.320
654	0.678	0.002	5	602.846	105.667	1900.289	243.585	2715.401	359.748	3372.069	1494.505	4522.861	409.154
655	0.679	0.002	5	605.752	103.822	1896.145	237.907	2723.434	341.600	3376.519	1516.171	4516.446	415.630
656	0.680	0.002	5	608.687	101.599	1890.816	233.413	2729.886	323.076	3384.743	1526.844	4513.470	422.128
657	0.681	0.002	5	611.673	98.953	1884.456	229.611	2734.326	306.164	3392.107	1522.258	4515.280	425.065
658	0.682	0.002	5	614.686	95.889	1877.573	225.905	2736.987	291.939	3394.583	1507.193	4522.272	420.669
659	0.683	0.002	5	617.668	92.491	1870.903	221.866	2738.515	280.768	3390.081	1493.064	4533.590	406.757
660	0.684	0.002	5	620.554	88.931	1865.191	217.392	2739.724	272.678	3378.765	1493.272	4547.420	384.243
661	0.685	0.002	5	623.292	85.456	1860.965	212.654	2741.400	267.663	3362.406	1519.029	4561.760	356.885
662	0.686	0.002	5	625.857	82.332	1858.400	207.899	2744.084	265.989	3343.736	1576.375	4575.021	329.603
663	0.687	0.002	5	628.242	79.780	1857.275	203.274	2747.922	268.755	3326.267	1662.741	4586.162	306.877
664	0.688	0.002	5	630.434	77.927	1857.017	198.858	2752.727	278.811	3313.691	1761.861	4594.554	291.995
665	0.689	0.002	5	632.389	76.823	1856.914	194.860	2758.354	301.502	3307.677	1841.189	4599.906	286.809
666	0.690	0.002	5	634.045	76.547	1856.527	191.628	2765.059	344.278	3305.112	1862.150	4602.315	291.492
667	0.691	0.002	5	635.350	77.304	1855.960	189.262	2773.306	414.778	3299.095	1803.627	4602.285	304.321
668	0.692	0.002	5	636.251	79.331	1855.554	187.275	2782.656	516.799	3285.432	1674.491	4600.561	322.025
669	0.693	0.002	5	636.633	82.652	1855.175	184.834	2789.127	642.500	3269.937	1502.184	4597.998	340.985
670	0.694	0.002	5	636.291	86.968	1854.026	181.430	2783.702	759.741	3268.548	1325.501	4595.753	358.450
671	0.695	0.002	5	635.009	91.875	1851.409	177.133	2765.417	818.995	3287.730	1191.571	4595.463	372.640
672	0.696	0.002	5	632.680	97.182	1847.445	172.219	2746.764	813.742	3314.618	1109.568	4598.679	382.300
673	0.697	0.002	5	629.330	102.972	1842.840	167.032	2733.084	777.818	3339.649	1055.804	4605.823	386.880
674	0.698	0.002	5	625.086	109.434	1838.289	162.054	2723.483	739.670	3359.715	1012.721	4615.836	386.955
675	0.699	0.002	5	620.144	116.714	1834.181	157.775	2716.468	713.181	3374.226	973.449	4626.895	384.043
676	0.700	0.002	5	614.792	124.855	1830.613	154.509	2710.917	703.052	3383.869	936.136	4637.350	379.872
677	0.701	0.002	5	609.443	133.768	1827.493	152.348	2705.977	709.561	3389.986	900.627	4646.150	375.671
678	0.702	0.002	5	604.666	143.234	1824.613	151.232	2700.963	730.711	3394.152	867.539	4652.757	371.857
679	0.703	0.002	5	601.166	152.875	1821.730	151.060	2695.328	762.745	3397.867	838.204	4656.862	368.111
680	0.704	0.002	5	599.700	162.103	1818.623	151.775	2688.706	800.105	3402.308	814.545	4658.168	363.615
681	0.705	0.002	5	600.923	170.068	1815.157	153.409	2680.964	835.651	3408.156	798.602	4656.407	357.308
682	0.706	0.002	5	605.183	175.710	1811.296	156.049	2672.180	861.480	3415.638	791.836	4651.612	348.136
683	0.707	0.002	5	612.353	177.984	1807.051	159.758	2662.584	870.068	3424.855	794.714	4644.488	335.436
684	0.708	0.002	5	621.792	176.236	1802.418	164.480	2652.612	855.579	3436.231	807.000	4636.560	319.548
685	0.709	0.002	5	632.497	170.555	1797.362	169.973	2643.010	815.773	3450.741	828.399	4629.830	302.238
686	0.710	0.002	5	643.393	161.820	1791.897	175.813	2634.576	754.037	3469.662	858.486	4626.067	286.272
687	0.711	0.001	5	653.588	151.369	1786.166	181.511	2627.522	679.361	3493.901	895.404	4626.212	274.244
688	0.712	0.001	5	662.470	140.491	1780.385	186.686	2621.224	603.169	3523.199	934.460	4630.269	267.560
689	0.713	0.001	5	669.702	130.107	1774.711	191.132	2614.715	535.219	3555.664	968.165	4637.605	266.248
690	0.714	0.001	5	675.169	120.750	1769.177	194.776	2607.272	481.431	3588.035	988.023	4647.368	269.335
691	0.715	0.001	5	678.926	112.722	1763.766	197.657	2598.587	444.157	3616.620	987.447	4658.762	275.357
692	0.716	0.001	5	681.154	106.231	1758.533	199.973	2588.652	423.542	3638.553	964.733	4671.087	282.785
693	0.717	0.001	5	682.098	101.455	1753.626	202.092	2577.613	418.738	3652.725	924.198	4683.676	290.360
694	0.718	0.001	5	682.008	98.533	1749.192	204.456	2565.682	428.428	3659.782	874.097	4695.900	297.306
695	0.719	0.001	5	681.091	97.513	1745.215	207.366	2553.092	450.531	3661.332	822.658	4707.283	303.292
696	0.720	0.001	5	679.474	98.308	1741.372	210.742	2540.111	481.073	3659.119	775.042	4717.591	308.196
697	0.721	0.001	5	677.194	100.647	1736.985	214.007	2527.160	512.695	3654.680	732.659	4726.797	311.884
698	0.722	0.001	5	674.212	104.047	1731.146	216.157	2515.038	534.447	3649.289	694.344	4734.959	314.214
699	0.723	0.001	5	670.472	107.856	1723.137	215.984	2505.084	535.340	3643.730	658.189	4742.110	315.264
700	0.724	0.001	5	666.006	111.402	1713.031	212.432	2498.812	511.142	3637.904	622.843	4748.213	315.637
701	0.725	0.001	5	661.004	114.188	1701.905	205.173	2497.037	467.697	3630.944	587.735	4753.242	316.535
702	0.726	0.001	5	655.793	115.960	1691.230	195.038	2499.412	416.246	3622.058	552.653	4757.362	319.543
703	0.727	0.001	5	650.735	116.622	1682.011	183.623	2504.863	366.340	3611.346	517.426	4761.052	326.285
704	0.728	0.001	5	646.136	116.139	1674.469	172.445	2512.220	322.954	3599.928	482.032	4765.037	338.179
705	0.729	0.001	5	642.528	114.723	1668.790	163.299	2519.739	290.388	3590.326	450.057	4769.548	354.274
706	0.730	0.001	5	639.279	112.212	1663.340	154.737	2528.207	261.897	3582.024	416.028	4775.897	377.872
707	0.731	0.001	5	636.767	108.955	1658.242	147.804	2536.297	240.409	3576.934	384.657	4783.439	406.314
708	0.732	0.001	5	634.881	105.313	1653.181	142.398	2543.569	225.303	3575.135	357.775	4790.855	436.353
709	0.733	0.001	5	633.454	101.686	1648.082	138.384	2549.787	216.129	3576.096	337.347	4795.831	463.357
710	0.734	0.001	5	632.311	98.450	1643.103	135.683	2554.978	212.464	3579.040	325.275	4795.904	483.301
711	0.735	0.001	5	631.312	95.921	1638.551	134.287	2559.468	213.661	3583.250	323.277	4789.844	495.340
712	0.736	0.001	5	630.364	94.320	1634.753	134.226	2563.864	218.587	3588.233	332.898	4778.455	502.729
713	0.737	0.001	5	629.418	93.762	1631.925	135.514	2568.898	225.534	3593.806	355.568	4764.137	511.242
714	0.738	0.001	5	628.446	94.273	1630.099	138.134	2575.144	232.571	3600.189	392.415	4749.896	526.759
715	0.739	0.001	5	627.426	95.829	1629.135	142.046	2582.710	238.271	3608.049	443.541	4738.706	553.770
716	0.740	0.001	5	626.323	98.364	1628.776	147.173	2591.145	242.288	3618.304	506.791	4733.366	594.813
717	0.741	0.0008	5	625.078	101.764	1628.700	153.343	2599.622	245.326	3631.381	576.638	4736.426	649.767
718	0.742	0.0008	5	623.607	105.892	1628.552	160.277	2607.260	248.669	3645.974	644.537	4749.691	714.328
719	0.743	0.0008	5	621.823	110.686	1628.012	167.683	2613.440	253.564	3658.337	701.688	4773.077	778.944
720	0.744	0.0008	5	619.666	116.278	1626.889	175.370	2617.962	260.367	3663.691	742.014	4803.664	831.652
721	0.745	0.0008	5	616.860	123.684	1624.958	183.945	2621.065	268.247	3658.404	762.089	4839.826	867.702
722	0.746	0.0008	5	613.873	132.085	1622.572	191.787	2622.153	272.342	3644.871	753.996	4872.126	885.180
723	0.747	0.0008	5	610.492	142.322	1619.635	199.284	2621.316	270.026	3627.901	718.430	4903.482	899.378
724	0.748	0.0008	5	606.734	154.577	1616.269	206.095	2618.677	260.539	3612.725	660.387	4935.787	922.050
725	0.749	0.0008	5	602.631	168.946	1612.721	212.011	2615.005	246.185	3602.321	590.824	4971.437	960.500
726	0.750	0.0008	5	598.217	185.332	1609.237	216.921	2611.292	230.418	3596.808	520.626	5012.250	1015.695
727	0.751	0.0008	5	593.506	203.310	1605.954	220.653	2608.348	215.843	3594.569	456.777	5058.176	1082.432
728	0.752	0.0008	5	588.534	222.101	1602.917	222.900	2606.813	203.603	3593.594	402.573	5105.739	1151.376
729	0.753	0.0008	5	583.415	240.697	1600.157	223.285	2607.287	193.696	3592.311	359.060	5147.567	1213.065
730	0.754	0.0008	5	578.382	258.020	1597.729	221.457	2610.303	185.465	3589.890	325.979	5175.009	1262.045
731	0.755	0.0008	5	573.755	272.993	1595.701	217.124	2616.066	177.977	3586.179	302.216	5183.407	1297.582
732	0.756	0.0008	5	569.854	284.543	1594.123	210.060	2624.202	170.392	3581.430	286.191	5174.874	1319.938
733	0.757	0.0008	5	566.887	291.703	1593.057	200.205	2633.787	162.288	3576.011	276.270	5155.571	1325.871
734	0.758	0.0007	5	564.890	293.892	1592.615	187.826	2643.697	153.769	3570.198	271.061	5131.814	1307.763
735	0.759	0.0007	5	563.739	291.251	1592.932	173.614	2653.020	145.265	3564.130	269.435	5107.825	1258.039
736	0.760	0.0007	5	563.247	284.809	1594.065	158.630	2661.267	137.194	3557.928	270.304	5085.120	1176.835
737	0.761	0.0007	5	563.274	276.348	1595.906	144.087	2668.330	129.756	3551.820	272.462	5064.447	1076.331
738	0.762	0.0006	5	563.780	267.848	1598.149	131.038	2674.298	122.926	3546.061	274.807	5047.232	975.558
739	0.763	0.0006	5	564.810	260.835	1600.347	120.131	2679.277	116.584	3540.650	276.776	5034.395	890.521
740	0.764	0.0006	5	566.434	256.065	1602.055	111.588	2683.339	110.655	3535.230	278.493	5025.625	829.511
741	0.765	0.0006	5	568.668	253.588	1602.979	105.331	2686.557	105.182	3529.321	280.572	5020.089	794.562
742	0.766	0.0006	5	571.402	252.965	1603.053	101.111	2689.020	100.303	3522.601	283.826	5017.204	784.257
743	0.767	0.0005	5	574.356	253.467	1602.418	98.577	2690.802	96.171	3514.984	289.043	5016.933	794.991
744	0.768	0.0005	5	577.114	254.212	1601.358	97.308	2691.911	92.893	3506.441	296.927	5019.617	820.407
745	0.769	0.001	5	579.216	254.236	1600.202	96.816	2692.284	90.526	3496.692	308.170	5025.222	849.937
746	0.770	0.001	5	580.270	252.594	1599.239	96.601	2691.810	89.126	3484.952	323.572	5031.981	868.709
747	0.771	0.001	5	580.048	248.636	1598.674	96.278	2690.390	88.818	3470.012	343.945	5035.820	862.022
748	0.772	0.001	5	578.516	242.384	1598.626	95.742	2688.006	89.827	3450.800	369.555	5032.990	824.051
749	0.773	0.001	5	575.814	234.572	1599.169	95.216	2684.743	92.418	3427.243	399.215	5023.840	762.820
750	0.774	0.001	5	572.202	226.145	1600.334	95.065	2680.741	96.727	3401.016	429.645	5012.068	695.145
751	0.775	0.001	5	568.018	217.706	1602.112	95.569	2676.179	102.550	3375.746	455.795	5001.098	637.517
752	0.776	0.001	5	563.684	209.475	1604.461	96.824	2671.417	109.199	3356.053	472.873	4992.715	601.232
753	0.777	0.001	5	559.707	201.691	1607.341	98.844	2667.314	115.615	3345.106	479.590	4987.964	592.239
754	0.778	0.001	5	556.633	194.919	1610.739	101.618	2665.423	120.654	3342.627	479.739	4988.372	612.821
755	0.779	0.001	5	554.907	189.810	1614.663	104.977	2667.433	123.216	3345.867	479.652	4996.515	662.886
756	0.780	0.001	5	554.693	186.508	1619.055	108.351	2673.811	122.367	3352.426	483.190	5015.360	738.652
757	0.781	0.001	5	555.769	184.351	1623.706	110.839	2683.016	117.930	3361.390	488.880	5045.480	828.620
758	0.782	0.001	5	557.611	182.217	1628.325	111.709	2692.545	111.038	3372.102	492.167	5080.106	911.510
759	0.783	0.001	5	559.629	179.175	1632.700	110.851	2700.656	103.596	3383.175	490.131	5102.458	962.032
760	0.784	0.001	5	561.405	174.939	1636.803	108.782	2706.919	97.226	3392.937	483.314	5095.302	963.051
761	0.785	0.001	5	562.797	169.939	1640.779	106.286	2711.701	92.843	3400.105	473.903	5058.832	914.389
762	0.786	0.001	5	563.896	165.073	1644.873	104.070	2715.539	90.841	3403.963	463.518	5009.125	831.159
763	0.787	0.001	5	564.873	161.304	1649.327	102.553	2718.758	91.385	3404.265	452.534	4961.075	734.192
764	0.788	0.001	5	565.838	159.295	1654.289	101.801	2721.314	94.524	3401.111	440.475	4921.272	640.446
765	0.789	0.001	5	566.755	159.221	1659.743	101.591	2722.805	100.157	3394.950	426.626	4890.317	558.990
766	0.790	0.001	5	567.439	160.793	1665.522	101.587	2722.624	107.941	3386.648	410.537	4866.389	492.187
767	0.791	0.001	5	567.620	163.395	1671.383	101.523	2720.199	117.236	3377.446	392.355	4847.295	438.705
768	0.792	0.001	5	567.044	166.245	1677.113	101.282	2715.234	127.153	3368.701	372.887	4831.243	395.966
769	0.793	0.001	5	565.565	168.529	1682.585	100.871	2707.868	136.714	3361.577	353.409	4816.990	361.493
770	0.794	0.001	5	563.226	169.519	1687.753	100.345	2698.721	145.062	3356.835	335.376	4803.776	333.503
771	0.795	0.001	5	560.289	168.692	1692.611	99.765	2688.823	151.693	3354.751	320.139	4791.219	311.078
772	0.796	0.001	5	557.213	165.842	1697.149	99.192	2679.422	156.567	3355.142	308.730	4779.189	294.111
773	0.797	0.001	5	554.558	161.139	1701.323	98.714	2671.691	160.050	3357.482	301.708	4767.685	283.114
774	0.798	0.001	5	552.853	155.079	1705.059	98.469	2666.410	162.657	3361.090	299.021	4756.740	278.962
775	0.799	0.001	5	552.462	148.336	1708.282	98.677	2663.702	164.704	3365.393	299.909	4746.364	282.679
776	0.800	0.001	5	553.501	141.588	1710.979	99.645	2662.965	166.047	3370.153	302.892	4736.529	295.308
777	0.801	0.001	5	555.845	135.386	1713.260	101.748	2663.074	166.101	3375.568	306.009	4727.120	317.751
778	0.802	0.001	5	559.196	130.064	1715.372	105.357	2662.871	164.207	3382.144	307.453	4717.751	350.326
779	0.803	0.001	5	563.192	125.687	1717.651	110.690	2661.723	160.187	3390.386	306.474	4707.351	391.687
780	0.804	0.001	5	567.494	122.038	1720.403	117.655	2659.749	154.668	3400.440	303.943	4693.546	437.014
781	0.805	0.001	5	571.831	118.647	1723.755	125.694	2657.505	148.865	3411.905	302.078	4672.409	476.515
782	0.806	0.001	5	575.993	114.897	1727.519	133.687	2655.482	143.980	3423.893	303.504	4639.670	497.063
783	0.807	0.001	5	579.825	110.208	1731.162	140.041	2653.832	140.740	3435.234	310.241	4593.715	488.558
784	0.808	0.001	5	583.220	104.264	1733.955	143.094	2652.383	139.329	3444.667	323.010	4537.766	450.324
785	0.809	0.001	5	586.120	97.117	1735.271	141.770	2650.740	139.626	3450.915	341.073	4478.468	390.905
786	0.810	0.001	5	588.513	89.159	1734.856	136.109	2648.357	141.501	3452.816	362.518	4422.529	322.415
787	0.811	0.001	5	590.411	80.988	1732.923	127.284	2644.586	144.974	3449.641	384.752	4374.549	255.426
788	0.812	0.001	5	591.836	73.252	1730.016	117.061	2638.765	150.113	3441.532	404.992	4336.638	196.823
789	0.813	0.001	5	592.798	66.479	1726.774	107.080	2630.405	156.726	3429.916	420.747	4308.950	149.764
790	0.814	0.001	5	593.294	60.979	1723.742	98.390	2619.542	164.035	3417.548	430.490	4290.398	114.534
791	0.815	0.001	5	593.317	56.828	1721.296	91.383	2607.094	170.724	3407.706	434.548	4279.225	89.623
792	0.816	0.001	5	592.871	53.931	1719.629	86.010	2594.810	175.597	3402.599	435.463	4273.390	72.708
793	0.817	0.001	5	591.978	52.103	1718.722	82.064	2584.510	178.305	3402.294	437.090	4270.851	61.424
794	0.818	0.001	5	590.665	51.129	1718.329	79.355	2577.148	179.291	3405.350	443.097	4269.813	53.850
795	0.819	0.001	5	588.952	50.805	1718.005	77.761	2572.499	179.101	3410.290	455.990	4268.917	48.667
796	0.820	0.001	5	586.838	50.963	1717.211	77.193	2569.566	177.843	3416.408	476.792	4267.326	45.065
797	0.821	0.001	5	584.296	51.478	1715.430	77.530	2567.203	175.150	3423.593	504.945	4264.689	42.560
798	0.822	0.001	5	581.267	52.252	1712.282	78.554	2564.591	170.498	3431.740	538.190	4261.032	40.839
799	0.823	0.001	5	577.678	53.209	1707.621	79.919	2561.496	163.705	3440.191	572.679	4256.644	39.672
800	0.824	0.001	5	573.460	54.302	1701.614	81.196	2558.264	155.288	3447.517	603.717	4251.948	38.879
801	0.825	0.001	5	568.581	55.535	1694.733	81.995	2555.555	146.408	3451.862	627.242	4247.380	38.348
802	0.826	0.001	5	563.062	56.974	1687.623	82.098	2553.953	138.405	3451.786	641.417	4243.271	38.044
803	0.827	0.001	5	556.966	58.750	1680.868	81.516	2553.710	132.310	3447.057	647.341	4239.787	38.018
804	0.828	0.001	5	550.364	61.036	1674.781	80.459	2554.749	128.641	3438.812	648.403	4236.915	38.392
805	0.829	0.001	5	543.293	64.036	1669.364	79.253	2556.821	127.481	3429.076	648.887	4234.515	39.334
806	0.830	0.001	5	535.755	67.961	1664.410	78.258	2559.672	128.649	3420.131	652.790	4232.391	41.051
807	0.831	0.001	5	527.737	73.002	1659.668	77.813	2563.128	131.817	3414.115	663.341	4230.363	43.798
808	0.832	0.001	5	519.264	79.311	1654.944	78.228	2567.125	136.558	3412.907	683.054	4228.314	47.926
809	0.833	0.001	5	510.433	87.011	1650.126	79.821	2571.692	142.375	3418.131	714.016	4226.214	53.954
810	0.834	0.001	5	501.393	96.254	1645.129	82.998	2576.916	148.772	3431.134	758.051	4224.096	62.674
811	0.835	0.001	5	492.261	107.332	1639.804	88.357	2582.915	155.385	3452.822	816.482	4222.005	75.298
812	0.836	0.001	5	482.993	120.820	1633.830	96.842	2589.807	162.159	3483.337	889.069	4219.905	93.631
813	0.837	0.001	5	473.295	137.630	1626.569	109.926	2597.653	169.491	3521.544	971.607	4217.612	120.288
814	0.838	0.001	5	462.692	158.781	1616.880	129.789	2606.282	178.197	3564.492	1052.017	4214.883	159.037
815	0.839	0.001	5	450.930	184.509	1602.920	159.209	2614.924	189.090	3607.498	1107.090	4211.806	215.532
816	0.840	0.001	5	438.735	212.668	1582.239	200.527	2621.887	202.074	3645.854	1106.756	4209.499	298.209
817	0.841	0.001	5	428.332	237.829	1552.973	253.152	2625.050	215.381	3676.669	1031.787	4211.194	416.649
818	0.842	0.001	5	422.487	253.606	1516.509	311.460	2623.444	226.802	3696.373	897.203	4223.313	570.593
819	0.843	0.001	5	422.263	257.327	1478.844	367.760	2618.106	236.780	3703.449	759.056	4247.791	733.435
820	0.844	0.001	5	426.209	251.653	1446.957	418.785	2610.981	248.409	3709.934	663.570	4270.973	883.467
821	0.845	0.0006	5	431.848	241.655	1424.260	466.778	2604.077	263.871	3726.916	609.555	4283.077	1036.663
822	0.846	0.0006	5	437.251	231.532	1410.868	515.196	2599.693	282.625	3757.146	577.397	4287.693	1225.894
823	0.847	0.001	5	441.381	223.522	1406.258	564.851	2600.308	301.889	3797.636	545.819	4299.515	1490.990
824	0.848	0.001	5	443.696	218.302	1410.341	611.775	2607.460	317.567	3839.642	504.497	4347.908	1864.545
825	0.849	0.001	5	443.712	215.687	1422.338	646.840	2620.107	326.284	3876.277	461.413	4476.797	2345.715
826	0.850	0.001	5	440.808	215.176	1438.860	659.470	2634.364	329.473	3906.543	428.728	4733.008	2850.743
827	0.851	0.001	5	434.362	216.352	1454.724	645.935	2646.046	335.854	3930.722	417.108	5021.866	3113.943
828	0.852	0.001	5	424.164	219.638	1468.489	613.679	2653.392	357.751	3947.536	439.915	4867.946	2848.481
829	0.853	0.001	5	410.731	227.517	1485.703	575.176	2657.283	404.259	3952.121	517.056	4558.536	2207.787
830	0.854	0.001	5	394.863	244.306	1512.674	538.267	2660.234	475.327	3923.226	676.588	4386.587	1503.083
831	0.855	0.001	5	377.021	273.760	1547.802	501.347	2664.227	557.399	3807.787	802.771	4382.892	974.842
832	0.856	0.001	5	357.701	317.505	1581.597	461.126	2667.493	625.803	3711.488	770.908	4406.411	736.243
833	0.857	0.001	5	338.640	373.252	1605.354	421.532	2664.466	660.761	3661.955	717.415	4410.429	613.241
834	0.858	0.001	5	325.675	424.220	1616.734	390.180	2652.317	658.296	3641.335	677.792	4404.255	546.268
835	0.859	0.001	5	324.522	458.583	1621.364	359.329	2629.249	616.376	3635.757	644.225	4391.564	497.293
836	0.860	0.001	5	344.022	449.481	1622.447	324.338	2599.016	528.357	3642.990	616.584	4372.934	457.286
837	0.861	0.001	5	372.100	405.211	1623.417	288.501	2573.774	428.011	3654.961	603.991	4350.342	424.044
838	0.862	0.001	5	399.000	348.829	1626.107	251.338	2555.387	333.249	3665.217	613.476	4320.685	387.270
839	0.863	0.001	5	420.836	297.487	1630.914	217.245	2545.159	258.792	3667.150	650.160	4286.193	339.861
840	0.864	0.001	5	438.228	258.088	1637.256	189.377	2542.041	206.997	3655.735	703.718	4254.976	281.395
841	0.865	0.001	5	452.910	230.814	1644.198	168.477	2544.029	173.370	3634.967	751.332	4234.105	224.567
842	0.866	0.001	5	466.340	213.261	1651.020	153.702	2549.269	152.121	3618.146	779.935	4223.232	181.699
843	0.867	0.001	5	479.383	202.359	1657.298	143.581	2556.329	138.656	3615.450	791.812	4218.585	154.448
844	0.868	0.001	5	492.335	195.069	1662.782	136.580	2564.099	129.987	3628.194	791.761	4217.231	138.859
845	0.869	0.001	5	505.060	188.957	1667.351	131.477	2571.768	124.406	3652.465	781.287	4217.735	130.821
846	0.870	0.001	5	517.170	182.576	1670.996	127.517	2578.806	121.040	3683.232	760.174	4219.616	127.549
847	0.871	0.001	5	528.193	175.500	1673.787	124.394	2584.895	119.554	3715.996	728.700	4222.814	127.323
848	0.872	0.002	5	537.729	168.061	1675.845	122.138	2589.857	119.952	3747.069	688.652	4227.358	128.943
849	0.873	0.002	5	545.547	160.997	1677.318	120.976	2593.624	122.450	3773.620	643.382	4233.168	131.359
850	0.874	0.002	5	551.623	155.110	1678.374	121.176	2596.248	127.358	3793.832	597.180	4239.940	133.580
851	0.875	0.002	5	556.117	151.053	1679.180	122.900	2597.957	134.965	3807.048	554.250	4247.140	134.883
852	0.876	0.002	5	559.310	149.231	1679.887	126.063	2599.220	145.393	3813.734	517.773	4254.171	135.130
853	0.877	0.002	5	561.546	149.824	1680.645	130.280	2600.785	158.465	3815.205	489.535	4260.616	134.902
854	0.878	0.002	5	563.190	152.861	1681.622	134.934	2603.603	173.615	3813.276	470.162	4266.414	135.291
855	0.879	0.002	5	564.629	158.289	1683.021	139.418	2608.577	189.896	3809.952	459.518	4271.822	137.499
856	0.880	0.002	5	566.297	165.994	1685.039	143.413	2616.150	206.150	3807.133	456.802	4277.233	142.415
857	0.881	0.002	5	568.682	175.746	1687.775	147.014	2625.969	221.336	3806.291	460.340	4282.939	150.215
858	0.882	0.002	5	572.282	187.081	1691.137	150.586	2636.924	234.905	3808.141	467.476	4288.962	160.088
859	0.883	0.002	5	577.503	199.217	1694.825	154.495	2647.616	246.948	3812.470	474.920	4295.050	170.332
860	0.884	0.002	5	584.556	211.064	1698.376	158.934	2656.915	257.932	3818.279	479.468	4300.872	178.990
861	0.885	0.002	5	593.426	221.389	1701.281	163.953	2664.254	268.178	3824.166	478.832	4306.233	184.708
862	0.886	0.002	5	603.926	229.057	1703.126	169.574	2669.653	277.311	3828.818	472.348	4311.111	187.209
863	0.887	0.002	5	615.810	233.247	1703.707	175.848	2673.660	283.851	3831.380	461.321	4315.503	187.184
864	0.888	0.002	5	628.864	233.559	1703.107	182.739	2677.284	285.202	3831.588	448.717	4319.301	185.912
865	0.889	0.002	5	642.923	230.087	1701.731	189.914	2681.723	278.738	3829.650	438.320	4322.298	184.880
866	0.890	0.002	5	657.816	223.482	1700.293	196.613	2687.762	263.992	3826.045	433.714	4324.274	185.441
867	0.891	0.002	5	673.256	214.852	1699.616	201.701	2695.262	243.939	3821.430	437.516	4325.065	188.509
868	0.892	0.002	5	688.759	205.404	1700.195	203.963	2703.364	223.304	3816.688	451.135	4324.568	194.364
869	0.893	0.002	5	703.672	196.092	1701.838	202.692	2711.175	205.720	3812.937	475.067	4322.682	202.606
870	0.894	0.002	5	717.329	187.502	1703.794	198.208	2718.165	192.695	3811.426	509.407	4319.203	212.234
871	0.895	0.002	5	729.238	179.867	1705.267	191.685	2724.132	184.275	3813.419	554.216	4313.775	221.781
872	0.896	0.002	5	739.164	173.150	1705.790	184.437	2729.020	179.941	3820.087	609.363	4305.976	229.394
873	0.897	0.002	5	747.117	167.161	1705.258	177.361	2732.754	179.106	3832.170	673.567	4295.655	232.943
874	0.898	0.002	5	753.272	161.671	1703.764	170.794	2735.122	181.326	3849.239	742.609	4283.466	230.538
875	0.899	0.002	5	757.865	156.490	1701.460	164.682	2735.757	186.363	3868.955	807.571	4271.166	221.784
876	0.900	0.002	5	761.152	151.549	1698.512	158.851	2734.253	194.099	3887.508	855.982	4260.922	208.877
877	0.901	0.002	5	763.415	146.938	1695.124	153.235	2730.408	204.209	3901.446	878.199	4253.990	195.525
878	0.902	0.002	5	764.972	142.876	1691.527	147.946	2724.474	215.742	3909.266	874.384	4250.228	184.538
879	0.903	0.002	5	766.157	139.585	1687.897	143.200	2717.272	227.022	3911.518	854.400	4248.624	176.906
880	0.904	0.002	5	767.249	137.174	1684.291	139.203	2710.049	236.136	3909.911	831.254	4247.929	172.574
881	0.905	0.002	5	768.402	135.606	1680.676	136.084	2704.074	241.796	3906.411	814.823	4247.066	171.369
882	0.906	0.002	5	769.625	134.734	1677.006	133.896	2700.178	243.960	3902.853	809.634	4245.326	173.296
883	0.907	0.002	5	770.797	134.349	1673.277	132.622	2698.508	243.745	3900.868	815.841	4242.379	178.348
884	0.908	0.002	5	771.728	134.231	1669.509	132.167	2698.626	242.860	3901.698	831.314	4238.190	186.139
885	0.909	0.002	5	772.217	134.186	1665.710	132.349	2699.774	243.073	3905.725	853.485	4232.972	195.562
886	0.910	0.002	5	772.118	134.087	1661.856	132.921	2701.109	245.967	3911.954	880.367	4227.228	204.708
887	0.911	0.002	5	771.378	133.897	1657.915	133.631	2701.811	252.888	3917.892	910.602	4221.804	211.281
888	0.912	0.002	5	770.046	133.658	1653.890	134.303	2701.078	264.919	3920.106	942.743	4217.777	213.527
889	0.913	0.002	5	768.246	133.462	1649.846	134.910	2698.068	282.731	3915.370	974.393	4216.089	211.059
890	0.914	0.002	5	766.112	133.377	1645.877	135.564	2691.889	306.164	3901.901	1001.932	4217.140	204.868
891	0.915	0.002	5	763.735	133.363	1642.060	136.413	2681.781	333.554	3880.209	1021.350	4220.689	196.659
892	0.916	0.002	5	761.159	133.215	1638.415	137.509	2667.640	361.173	3853.303	1030.386	4226.002	188.170
893	0.917	0.002	5	758.415	132.640	1634.930	138.753	2650.767	383.765	3826.024	1031.287	4232.058	180.886
894	0.918	0.002	5	755.582	131.440	1631.632	139.978	2634.110	396.743	3803.490	1031.527	4237.712	176.035
895	0.919	0.002	5	752.782	129.669	1628.607	141.105	2621.156	398.585	3789.658	1040.454	4241.869	174.572
896	0.920	0.002	5	750.129	127.573	1625.921	142.206	2614.064	390.991	3786.875	1063.899	4243.678	177.012
897	0.921	0.002	5	747.663	125.396	1623.521	143.423	2612.681	377.097	3795.860	1100.390	4242.733	183.208
898	0.922	0.001	5	745.359	123.242	1621.209	144.851	2615.119	360.002	3815.253	1140.245	4239.306	192.414
899	0.923	0.001	5	743.158	121.093	1618.731	146.514	2619.098	342.309	3841.137	1167.772	4234.480	203.775
900	0.924	0.001	5	741.006	118.929	1615.870	148.387	2623.063	325.868	3867.801	1167.058	4229.964	216.978
901	0.925	0.001	5	738.865	116.814	1612.493	150.414	2626.644	311.454	3890.027	1129.859	4227.558	232.343
902	0.926	0.001	5	736.703	114.902	1608.549	152.477	2630.491	298.809	3905.227	1060.509	4228.597	250.083
903	0.927	0.001	5	734.491	113.365	1604.026	154.362	2635.721	287.200	3913.599	973.410	4233.601	269.386
904	0.928	0.001	5	732.194	112.299	1598.920	155.748	2643.220	276.102	3916.808	885.299	4242.100	288.288
905	0.929	0.001	5	729.760	111.684	1593.255	156.243	2653.184	265.574	3916.730	808.502	4252.716	304.658
906	0.930	0.001	5	727.108	111.393	1587.137	155.454	2665.130	256.213	3914.685	748.785	4263.689	317.305
907	0.931	0.001	5	724.118	111.235	1580.793	153.095	2678.264	248.852	3911.104	707.062	4273.497	326.046
908	0.932	0.001	5	720.650	111.008	1574.538	149.063	2691.866	244.182	3905.742	681.978	4281.066	331.061
909	0.933	0.001	5	716.576	110.541	1568.683	143.480	2705.455	242.455	3898.157	671.332	4285.666	332.528
910	0.934	0.0009	5	711.806	109.747	1563.441	136.672	2718.721	243.316	3888.154	672.275	4286.805	330.655
911	0.935	0.0009	5	706.290	108.650	1558.892	129.100	2731.316	245.794	3876.122	680.963	4284.187	325.827
912	0.936	0.0009	5	699.996	107.388	1555.003	121.279	2742.634	248.475	3863.218	692.259	4277.765	318.685
913	0.937	0.0009	5	692.897	106.171	1551.697	113.705	2751.721	249.891	3851.235	699.913	4267.943	310.089
914	0.938	0.0009	5	684.993	105.244	1548.906	106.817	2757.460	248.993	3842.088	697.480	4255.893	301.177
915	0.939	0.0009	5	676.327	104.880	1546.610	100.978	2759.002	245.411	3837.296	679.960	4243.692	293.681
916	0.940	0.0009	5	667.002	105.404	1544.838	96.475	2756.199	239.345	3837.826	645.582	4233.949	290.164
917	0.941	0.0009	5	657.157	107.195	1543.671	93.506	2749.778	231.309	3843.917	596.621	4229.143	293.504
918	0.942	0.0009	5	646.936	110.597	1543.207	92.115	2741.115	221.986	3854.493	538.606	4231.144	305.506
919	0.943	0.0009	5	636.468	115.744	1543.518	92.086	2731.801	212.121	3867.097	478.900	4240.754	325.351
920	0.944	0.0008	5	625.851	122.401	1544.593	92.873	2723.215	202.363	3879.345	425.122	4256.906	349.591
921	0.945	0.0008	5	615.138	129.919	1546.293	93.653	2716.246	193.141	3890.558	382.499	4276.499	374.846
922	0.946	0.0008	5	604.320	137.331	1548.340	93.548	2711.200	184.636	3901.533	351.984	4295.862	400.299
923	0.947	0.0008	5	593.358	143.560	1550.375	91.921	2707.894	176.832	3913.302	331.208	4312.366	427.203
924	0.948	0.0008	5	582.254	147.662	1552.055	88.615	2705.880	169.596	3926.339	316.431	4324.873	457.138
925	0.949	0.0008	5	571.122	149.053	1553.162	83.970	2704.660	162.789	3940.199	303.891	4333.528	490.641
926	0.950	0.0008	5	560.183	147.661	1553.633	78.668	2703.838	156.340	3953.375	290.828	4339.490	526.046
927	0.951	0.0008	5	549.696	143.936	1553.540	73.474	2703.190	150.262	3963.630	276.466	4344.597	558.661
928	0.952	0.0008	5	539.888	138.692	1553.029	69.045	2702.671	144.605	3968.984	262.123	4350.821	581.718
929	0.953	0.0008	5	530.929	132.841	1552.265	65.820	2702.386	139.401	3968.763	249.731	4359.830	590.037
930	0.954	0.0008	5	522.945	127.160	1551.391	63.999	2702.508	134.656	3963.864	240.217	4372.699	583.662
931	0.955	0.0008	5	516.016	122.132	1550.518	63.560	2703.182	130.430	3956.221	233.516	4389.403	567.645
932	0.956	0.0008	5	510.152	117.904	1549.735	64.283	2704.429	126.880	3947.934	229.515	4408.598	548.518
933	0.957	0.0008	5	505.286	114.357	1549.126	65.773	2706.127	124.234	3940.552	228.343	4428.256	531.305
934	0.958	0.0004	5	501.301	111.243	1548.778	67.535	2708.051	122.711	3934.857	229.986	4446.540	518.752
935	0.959	0.0004	5	498.070	108.355	1548.756	69.084	2709.928	122.455	3930.970	234.023	4462.224	511.769
936	0.960	0.0003	5	495.488	105.638	1549.084	70.083	2711.505	123.504	3928.505	239.743	4474.607	509.994
937	0.961	0.0003	5	493.470	103.209	1549.733	70.436	2712.630	125.766	3926.703	246.478	4483.209	512.240
938	0.962	0.0003	5	491.926	101.277	1550.648	70.278	2713.331	129.011	3924.634	253.914	4487.484	516.896
939	0.963	0.0003	5	490.747	100.027	1551.776	69.872	2713.862	132.865	3921.456	262.208	4486.686	522.260
940	0.964	0.0003	5	489.813	99.527	1553.089	69.470	2714.621	136.831	3916.618	271.847	4480.004	526.552
941	0.965	0.0003	5	489.001	99.705	1554.575	69.226	2715.952	140.311	3909.874	283.333	4467.002	527.513
942	0.966	0.0003	5	488.198	100.377	1556.217	69.151	2717.933	142.634	3901.139	296.780	4448.326	522.126
943	0.967	0.0003	5	487.302	101.302	1557.972	69.136	2720.334	143.129	3890.405	311.451	4426.396	507.567
944	0.968	0.0003	5	486.226	102.261	1559.770	69.004	2722.792	141.294	3877.953	325.434	4405.240	483.612
945	0.969	0.0003	5	484.905	103.121	1561.537	68.601	2725.072	137.012	3864.778	336.233	4388.756	454.121
946	0.970	0.0003	5	483.297	103.834	1563.200	67.850	2727.147	130.678	3852.431	342.495	4378.532	424.886
947	0.971	0.0003	5	481.377	104.374	1564.709	66.761	2729.085	123.075	3842.040	345.059	4373.400	399.953
948	0.972	0.0003	5	479.132	104.710	1566.041	65.423	2730.951	115.129	3833.638	346.063	4370.753	380.419
949	0.973	0.0003	5	476.576	104.832	1567.227	63.996	2732.804	107.693	3826.459	347.522	4367.933	365.487
950	0.974	0.0005	5	473.755	104.794	1568.351	62.687	2734.737	101.444	3819.571	350.688	4362.946	353.639
951	0.975	0.0005	5	470.763	104.701	1569.544	61.701	2736.887	96.860	3812.325	356.038	4354.755	343.248
952	0.976	0.0005	5	467.753	104.686	1570.968	61.201	2739.405	94.223	3804.595	363.409	4343.466	332.985
953	0.977	0.0005	5	464.945	104.886	1572.795	61.286	2742.414	93.632	3796.921	372.127	4330.366	322.378
954	0.978	0.0005	5	462.618	105.412	1575.153	61.991	2745.972	94.999	3790.543	381.264	4317.508	312.273
955	0.979	0.0005	5	461.106	106.300	1578.056	63.293	2750.047	98.055	3787.063	390.102	4306.751	304.494
956	0.980	0.0005	5	460.758	107.434	1581.326	65.116	2754.485	102.345	3787.700	398.515	4298.842	300.616
957	0.981	0.0005	5	461.878	108.530	1584.595	67.356	2759.014	107.276	3792.686	406.879	4293.229	300.909
958	0.982	0.0006	5	464.660	109.250	1587.408	69.954	2763.342	112.258	3801.355	415.759	4288.605	304.304
959	0.983	0.0006	5	469.142	109.378	1589.422	72.976	2767.323	116.912	3812.729	425.743	4283.629	309.105
960	0.984	0.0006	5	475.218	108.912	1590.576	76.636	2771.090	121.247	3826.062	437.420	4277.441	313.840
961	0.985	0.0006	5	482.684	108.023	1591.170	81.237	2775.056	125.648	3841.135	451.364	4269.842	317.979
962	0.986	0.0006	5	491.294	106.913	1591.822	87.044	2779.803	130.637	3858.368	468.083	4261.125	322.288
963	0.987	0.0006	5	500.762	105.673	1593.293	94.113	2785.861	136.518	3878.808	487.984	4251.571	328.609
964	0.988	0.0006	5	510.768	104.231	1596.234	102.107	2793.478	143.051	3904.048	511.313	4240.850	339.055
965	0.989	0.0006	5	520.968	102.432	1600.871	110.254	2802.416	149.388	3936.226	538.031	4227.542	355.063
966	0.990	0.0006	5	531.048	100.202	1606.835	117.565	2811.921	154.396	3978.616	568.273	4208.445	376.282
967	0.991	0.0006	5	540.769	97.669	1613.258	123.285	2820.946	157.288	4038.125	608.825	4176.162	394.154
968	0.992	0.0006	5	549.970	95.125	1619.180	127.260	2828.552	158.105	4108.619	710.206	4135.793	355.306
969	0.993	0.0006	5	558.533	92.891	1623.973	129.931	2834.224	157.683	4123.928	299.240	4151.832	829.254
970	0.994	0.0006	5	566.350	91.201	1627.543	132.032	2837.913	157.218	4122.143	262.309	4183.740	925.150
971	0.995	0.0006	5	573.324	90.179	1630.241	134.269	2839.890	157.803	4123.937	238.337	4207.651	999.163
972	0.996	0.0006	5	579.405	89.858	1632.640	137.121	2840.558	160.165	4127.825	223.807	4221.610	1050.654
973	0.997	0.0006	5	584.614	90.191	1635.311	140.752	2840.320	164.563	4133.442	216.553	4223.247	1079.761
974	0.998	0.0006	5	589.046	91.058	1638.644	144.972	2839.501	170.793	4140.852	214.740	4211.354	1088.799
975	0.999	0.0006	5	592.835	92.284	1642.757	149.278	2838.301	178.296	4150.292	216.421	4186.375	1081.755
976	1.000	0.0008	5	596.119	93.690	1647.485	153.007	2836.787	186.368	4150.269	1063.141	4161.941	219.358
977	1.001	0.0008	5	599.026	95.145	1652.472	155.597	2834.918	194.426	4106.274	1037.139	4175.586	221.213
978	1.002	0.0008	5	601.675	96.606	1657.317	156.820	2832.605	202.216	4058.604	1006.945	4190.414	220.405
979	1.003	0.0008	5	603.972	97.969	1661.336	156.889	2830.054	209.170	4015.737	977.319	4204.018	217.449
980	1.004	0.0008	5	606.771	99.740	1665.490	156.155	2826.406	217.798	3968.374	939.711	4219.786	212.792
981	1.005	0.0008	5	609.574	101.592	1668.602	155.256	2822.541	226.494	3930.237	903.684	4233.685	209.151
982	1.006	0.0008	5	612.793	103.731	1671.059	154.615	2818.282	236.312	3896.786	866.687	4247.345	206.913
983	1.007	0.0008	5	616.199	105.938	1672.771	154.549	2814.225	246.216	3869.441	832.613	4259.708	206.012
984	1.008	0.0008	5	620.966	108.878	1674.286	155.414	2809.488	258.756	3839.440	791.749	4274.286	205.746
985	1.009	0.0010	5	625.959	111.770	1675.336	157.338	2805.798	269.763	3814.672	755.313	4286.804	205.756
986	1.010	0.0010	5	631.420	114.758	1676.291	160.506	2803.338	278.969	3793.633	721.591	4297.691	205.877
987	1.011	0.0010	5	636.608	117.498	1677.264	164.506	2802.550	284.988	3778.967	695.158	4305.598	206.309
988	1.012	0.0010	5	642.817	120.779	1678.746	170.576	2803.503	289.195	3767.967	670.991	4312.326	207.724
989	1.013	0.0010	5	648.194	123.782	1680.480	176.972	2805.835	291.020	3764.158	657.413	4316.136	210.340
990	1.014	0.0010	5	653.009	126.809	1682.551	183.524	2808.970	292.157	3765.568	652.501	4318.298	214.608
991	1.015	0.0010	5	656.733	129.626	1684.669	188.975	2812.048	293.476	3770.572	655.502	4319.365	220.202
992	1.016	0.0010	5	660.248	133.151	1687.437	194.148	2815.598	295.903	3780.399	668.149	4320.038	229.334
993	1.017	0.0010	5	662.504	136.558	1690.144	197.219	2818.480	298.547	3792.507	687.912	4320.343	240.032
994	1.018	0.0010	5	663.868	140.084	1692.966	198.778	2820.917	300.320	3807.124	714.836	4320.377	252.489
995	1.019	0.0010	5	664.433	143.254	1695.562	199.228	2822.800	299.624	3822.099	745.019	4320.013	264.414
996	1.020	0.0010	5	664.492	146.698	1698.581	199.114	2824.942	293.967	3841.176	788.306	4318.712	277.568
997	1.021	0.0010	5	664.263	149.149	1701.103	198.847	2827.332	283.340	3858.338	835.644	4316.351	286.386
998	1.022	0.0010	5	664.120	150.604	1703.247	198.745	2830.778	268.178	3873.622	891.959	4312.824	290.461
999	1.023	0.0010	5	664.344	150.892	1704.753	198.945	2835.258	251.871	3884.879	952.072	4308.951	289.817
1000	1.024	0.0010	5	665.313	149.870	1705.852	199.620	2842.538	231.063	3895.055	1035.220	4304.258	285.252
1001	1.025	0.0010	5	666.953	147.690	1706.049	200.618	2850.832	212.058	3903.214	1119.559	4300.576	280.448
1002	1.026	0.0010	5	669.230	144.483	1705.387	201.868	2860.094	193.748	3914.136	1206.912	4297.765	278.111
1003	1.027	0.0010	5	671.704	140.853	1704.037	203.105	2868.663	178.056	3929.875	1282.896	4295.920	279.648
1004	1.028	0.0010	5	674.976	135.881	1701.627	204.614	2878.217	161.116	3957.791	1359.599	4294.386	285.917
1005	1.029	0.0010	5	678.130	131.112	1699.069	206.070	2885.663	148.286	3989.007	1407.490	4293.463	293.564
1006	1.030	0.0010	5	681.381	126.652	1696.910	207.840	2891.659	138.817	4019.073	1432.515	4292.933	299.445
1007	1.031	0.0010	5	684.402	123.321	1696.052	209.976	2895.993	133.455	4040.324	1442.245	4292.716	300.565
1008	1.032	0.0010	5	688.011	120.650	1697.176	213.321	2900.200	131.055	4055.581	1452.140	4292.473	294.930
1009	1.033	0.0010	5	691.074	119.572	1700.385	216.843	2903.580	132.273	4061.507	1471.465	4291.766	283.631
1010	1.034	0.0010	5	693.581	119.629	1705.086	220.140	2906.941	136.042	4063.980	1506.595	4290.176	268.402
1011	1.035	0.0010	5	695.121	120.399	1709.816	222.270	2910.232	141.014	4067.242	1553.087	4287.916	252.930
1012	1.036	0.0010	5	695.838	121.838	1714.961	222.923	2914.592	148.168	4076.877	1625.635	4284.573	234.037
1013	1.037	0.0010	5	695.397	123.298	1718.409	221.117	2918.878	155.431	4094.052	1705.969	4281.584	217.363
1014	1.038	0.0010	5	694.056	124.589	1720.325	216.717	2923.176	163.309	4120.552	1797.656	4279.378	201.785
1015	1.039	0.0010	5	692.256	125.430	1720.822	210.507	2926.820	171.244	4152.949	1890.312	4278.475	188.777
1016	1.040	0.0010	5	689.641	125.871	1720.256	200.699	2930.517	182.313	4202.196	2014.270	4278.974	174.803
1017	1.041	0.0010	5	687.007	125.656	1719.109	190.103	2932.961	194.597	4257.595	2142.002	4280.807	163.772
1018	1.042	0.0010	5	684.232	124.779	1717.758	178.703	2934.224	209.564	4283.604	154.781	4323.680	2283.253
1019	1.043	0.0010	5	681.569	123.306	1716.544	168.195	2934.100	225.963	4286.626	148.812	4393.491	2418.700
1020	1.044	0.0010	5	678.095	120.478	1715.191	156.010	2932.001	249.619	4290.419	145.209	4487.002	2573.361
1021	1.045	0.0010	5	674.550	116.668	1714.055	145.732	2927.912	275.226	4293.743	146.251	4572.508	2679.956
1022	1.046	0.0010	5	670.656	111.631	1713.025	136.724	2921.677	303.704	4296.741	152.431	4639.577	2721.057
1023	1.047	0.0010	5	666.927	106.155	1712.215	129.925	2914.446	329.595	4299.121	163.075	4669.838	2686.248
1024	1.048	0.0010	5	662.502	99.006	1711.461	123.797	2904.816	354.197	4301.508	181.721	4667.984	2567.353
1025	1.049	0.0010	5	658.815	92.641	1710.996	120.341	2896.313	363.053	4303.203	201.727	4648.944	2426.655
1026	1.050	0.0010	5	655.741	87.218	1710.707	119.167	2888.782	355.183	4304.411	219.321	4631.580	2303.076
1027	1.051	0.0010	5	653.604	83.611	1710.554	120.246	2882.510	336.343	4305.247	228.463	4623.336	2234.076
1028	1.052	0.0010	5	652.019	81.411	1710.492	123.808	2875.567	309.660	4306.326	228.133	4622.440	2222.508
1029	1.053	0.0010	5	651.182	81.121	1710.591	130.090	2867.426	280.842	4308.284	216.628	4628.293	2292.261
1030	1.054	0.0010	5	651.178	82.478	1710.909	137.146	2859.456	258.251	4311.052	199.999	4637.335	2427.387
1031	1.055	0.0010	5	651.767	84.654	1711.449	143.669	2852.104	241.512	4314.368	183.418	4647.575	2601.699
1032	1.056	0.0010	5	653.042	87.610	1712.348	150.004	2844.444	226.768	4318.801	166.334	4663.213	2841.466
1033	1.057	0.0010	5	655.173	91.021	1713.684	155.220	2837.453	213.966	4324.428	150.983	4700.307	3156.923
1034	1.058	0.0010	5	657.813	94.038	1715.220	158.407	2833.178	204.117	4330.132	140.728	4796.401	3510.033
1035	1.059	0.0008	5	660.769	96.606	1716.856	160.345	2831.680	195.904	4335.605	134.675	5059.190	3919.727
1036	1.060	0.0008	4	664.550	99.218	1718.811	162.026	2833.015	187.117	4341.776	131.247	--undefined--	--undefined--
1037	1.061	0.0008	4	669.065	101.773	1720.783	164.152	2837.933	177.715	4348.529	130.539	--undefined--	--undefined--
1038	1.062	0.0008	4	673.212	103.814	1721.907	167.138	2845.029	169.666	4354.605	131.975	--undefined--	--undefined--
1039	1.063	0.0008	4	676.650	105.451	1721.785	171.237	2852.911	163.421	4359.865	134.826	--undefined--	--undefined--
1040	1.064	0.0008	4	679.698	107.139	1719.654	177.521	2862.347	158.490	4365.013	139.865	--undefined--	--undefined--
1041	1.065	0.0008	4	681.748	109.096	1714.003	185.984	2872.734	156.168	4369.149	147.897	--undefined--	--undefined--
1042	1.066	0.0008	4	682.183	111.294	1705.244	193.510	2881.778	156.951	4370.691	157.208	--undefined--	--undefined--
1043	1.067	0.0008	4	681.268	113.917	1694.691	197.917	2889.294	159.434	4369.556	166.135	--undefined--	--undefined--
1044	1.068	0.0008	5	678.788	117.877	1681.821	197.962	2896.634	162.756	4365.310	174.514	4628.493	4371.545
1045	1.069	0.0008	5	674.271	124.041	1668.914	191.901	2903.580	165.415	4187.473	3659.244	4358.094	179.832
1046	1.070	0.0008	5	668.285	131.851	1659.903	182.564	2909.118	166.270	4018.055	3264.936	4351.335	180.748
1047	1.071	0.0008	5	661.012	140.912	1654.418	172.876	2913.506	166.013	3931.315	3033.623	4347.319	179.409
1048	1.072	0.0008	5	650.569	152.802	1650.943	162.301	2917.559	165.392	3873.707	2860.951	4347.215	177.480
1049	1.073	0.0008	5	635.783	167.003	1649.382	151.502	2920.934	165.404	3837.694	2721.314	4353.496	176.589
1050	1.074	0.0008	5	619.028	179.198	1649.297	142.215	2922.966	167.009	3818.015	2605.313	4365.109	177.188
1051	1.075	0.0008	5	601.678	187.374	1649.932	134.084	2923.841	170.469	3804.053	2493.988	4379.652	178.201
1052	1.076	0.0008	5	581.734	190.796	1651.110	125.457	2923.597	177.134	3788.718	2361.590	4398.270	178.696
1053	1.077	0.0008	5	561.567	186.502	1652.631	116.826	2921.682	188.633	3771.547	2216.295	4418.719	177.552
1054	1.078	0.0008	5	546.795	176.365	1653.912	110.291	2918.235	203.830	3757.916	2099.946	4434.468	175.032
1055	1.079	0.0008	5	537.266	164.443	1654.765	105.964	2913.642	221.949	3750.111	2021.067	4444.082	172.221
1056	1.080	0.0007	5	530.630	151.048	1655.279	103.161	2907.167	246.458	3749.390	1971.948	4447.965	169.280
1057	1.081	0.0007	5	526.423	138.109	1655.449	102.226	2899.193	277.411	3759.811	1966.487	4443.806	166.148
1058	1.082	0.0007	5	523.738	128.346	1655.450	102.900	2892.494	307.949	3778.168	2004.071	4433.559	162.194
1059	1.083	0.0007	5	521.289	121.034	1655.470	104.448	2888.511	336.466	3798.065	2069.339	4421.154	156.681
1060	1.084	0.0007	5	518.033	114.325	1655.607	106.922	2888.265	368.318	3817.600	2168.209	4407.114	148.519
1061	1.085	0.0007	5	513.658	108.222	1655.923	110.375	2894.914	403.671	3830.211	2299.809	4394.347	138.784
1062	1.086	0.0007	5	509.094	103.596	1656.324	114.200	2908.782	436.099	3831.130	2439.107	4386.452	131.136
1063	1.087	0.0007	5	504.787	100.243	1656.677	118.293	2928.454	463.902	3822.944	2585.073	4382.661	126.356
1064	1.088	0.0006	5	500.218	97.649	1656.837	123.625	2957.494	488.953	3804.788	2776.338	4381.918	123.831
1065	1.089	0.0006	5	495.759	96.340	1656.300	130.676	2995.423	503.442	3775.568	3033.082	4384.581	123.937
1066	1.090	0.0006	5	492.293	96.649	1654.585	138.478	3031.164	500.044	3742.276	3313.618	4389.473	125.751
1067	1.091	0.0006	5	489.606	98.168	1651.464	146.746	3059.822	482.502	3708.679	3592.630	4395.184	127.854
1068	1.092	0.0006	5	486.932	101.080	1645.744	156.972	3083.494	450.726	3670.276	3896.602	4401.797	129.613
1069	1.093	0.0006	5	483.894	105.541	1636.281	168.859	3098.708	407.470	3630.440	4185.810	4407.993	129.936
1070	1.094	0.0006	5	480.433	110.668	1624.571	179.454	3104.352	365.198	3601.472	4393.320	4411.668	128.503
1071	1.095	0.0006	5	475.668	116.752	1610.377	188.675	3104.593	323.838	3585.915	4557.229	4412.961	125.756
1072	1.096	0.0006	5	469.564	123.172	1596.071	195.217	3102.205	288.694	3587.781	4701.604	4412.151	122.675
1073	1.097	0.0006	5	459.059	132.072	1578.520	200.701	3098.122	250.789	3617.921	4945.353	4409.118	119.039
1074	1.098	0.0006	5	445.566	141.152	1563.553	204.437	3094.433	220.690	3697.331	5375.087	4404.822	116.440
1075	1.099	0.0006	5	428.353	150.102	1551.108	208.958	3091.365	195.209	3980.974	6432.846	4399.433	115.103
1076	1.100	0.0003	4	411.054	156.700	1543.181	216.367	3089.215	175.942	4393.769	115.406	--undefined--	--undefined--
1077	1.101	0.0002	4	392.892	162.305	1539.953	234.139	3087.235	157.399	4386.164	118.297	--undefined--	--undefined--
1078	1.102	0.0002	4	383.987	169.053	1546.055	262.328	3085.371	144.960	4378.709	124.201	--undefined--	--undefined--
1079	1.103	0.0002	4	386.563	182.901	1563.268	297.954	3082.292	138.455	4371.580	134.535	--undefined--	--undefined--
1080	1.104	0.0002	4	401.877	199.152	1585.680	330.404	3077.201	140.069	4366.368	149.027	--undefined--	--undefined--
1081	1.105	0.0002	4	433.006	198.135	1613.519	375.486	3066.231	154.877	4362.500	172.684	--undefined--	--undefined--
1082	1.106	0.0002	4	455.205	172.330	1636.950	437.308	3048.739	183.381	4360.311	195.594	--undefined--	--undefined--
1083	1.107	0.0002	4	465.947	147.059	1657.512	527.019	3020.605	225.593	4356.681	209.557	--undefined--	--undefined--
1084	1.108	0.0002	4	469.959	132.174	1671.934	630.180	2984.342	268.778	4350.887	206.692	--undefined--	--undefined--
1085	1.109	0.0002	4	471.471	123.307	1681.317	763.410	2932.842	308.228	4343.545	185.024	--undefined--	--undefined--
1086	1.110	0.0002	4	471.667	120.663	1683.067	867.921	2890.354	319.457	4339.983	158.622	--undefined--	--undefined--
1087	1.111	0.0002	4	471.814	120.578	1683.154	935.064	2862.317	309.780	4340.290	135.344	--undefined--	--undefined--
1088	1.112	0.0002	4	472.387	121.286	1686.188	960.834	2850.660	291.874	4342.890	119.685	--undefined--	--undefined--
1089	1.113	0.0001	4	473.833	122.005	1695.924	954.785	2850.404	267.579	4347.069	107.521	--undefined--	--undefined--
1090	1.114	0.0001	4	475.771	121.921	1709.936	921.352	2859.085	246.202	4350.406	101.347	--undefined--	--undefined--
1091	1.115	0.0001	4	478.065	120.898	1726.557	867.473	2872.791	226.620	4352.222	98.607	--undefined--	--undefined--
1092	1.116	0.0001	4	480.403	119.226	1741.895	806.935	2887.343	210.496	4352.048	98.273	--undefined--	--undefined--
1093	1.117	0.00008	4	483.877	116.468	1758.871	730.523	2905.216	193.697	4349.395	99.899	--undefined--	--undefined--
1094	1.118	0.00004	4	488.486	113.187	1772.944	668.165	2920.689	181.751	4345.134	103.044	--undefined--	--undefined--
1095	1.119	0.00004	4	495.373	108.764	1786.897	622.587	2934.834	174.406	4340.395	107.854	--undefined--	--undefined--
1096	1.120	0.00001	4	503.943	103.146	1801.256	600.498	2946.608	172.572	4337.138	113.996	--undefined--	--undefined--
1097	1.121	0.000008	4	516.213	93.753	1822.932	600.074	2959.424	176.691	4336.181	124.107	--undefined--	--undefined--
1098	1.122	0.000006	4	527.208	82.835	1848.277	622.756	2969.387	185.593	4338.634	136.294	--undefined--	--undefined--
1099	1.123	0.000006	4	535.738	71.004	1878.158	663.622	2976.512	197.451	4343.651	151.164	--undefined--	--undefined--
1100	1.124	0.000006	4	540.504	60.855	1907.107	712.866	2979.616	208.699	4349.544	166.463	--undefined--	--undefined--
1101	1.125	0.000006	4	542.818	50.769	1940.233	782.024	2978.937	220.039	4357.401	185.380	--undefined--	--undefined--
1102	1.126	0.000006	4	542.643	43.986	1965.350	850.008	2975.313	226.528	4364.939	200.386	--undefined--	--undefined--
1103	1.127	0.000006	4	541.173	39.359	1982.379	918.503	2970.917	229.078	4372.441	209.334	--undefined--	--undefined--
1104	1.128	0.000006	4	539.234	36.649	1989.423	979.606	2968.091	229.391	4378.579	209.391	--undefined--	--undefined--
1105	1.129	0.000006	4	536.603	34.860	1987.804	1049.895	2968.240	230.646	4383.837	198.716	--undefined--	--undefined--
1106	1.130	0.000002	4	534.196	34.322	1979.364	1106.667	2973.353	236.277	4385.826	182.215	--undefined--	--undefined--
1107	1.131	0.000002	4	532.001	34.542	1967.881	1144.631	2984.426	248.828	4385.276	164.604	--undefined--	--undefined--
1108	1.132	0.000002	4	530.321	35.099	1957.476	1149.888	3000.169	266.715	4383.256	150.835	--undefined--	--undefined--
1109	1.133	0.000002	4	528.849	35.827	1947.428	1111.184	3025.239	293.872	4379.778	138.949	--undefined--	--undefined--
1110	1.134	0.000001	4	528.135	36.348	1942.038	1044.545	3050.176	319.286	4375.996	133.062	--undefined--	--undefined--
1111	1.135	0.000001	4	528.060	36.817	1941.490	974.591	3070.025	340.216	4371.662	132.369	--undefined--	--undefined--
1112	1.136	0.0000008	4	528.469	37.446	1945.339	927.476	3078.302	353.206	4367.132	136.780	--undefined--	--undefined--
1113	1.137	0.00003	4	529.340	38.780	1953.083	900.610	3074.712	361.136	4361.008	149.562	--undefined--	--undefined--
1114	1.138	0.00003	4	530.233	40.758	1959.301	899.426	3063.506	363.395	4355.267	170.231	--undefined--	--undefined--
1115	1.139	0.00003	4	530.920	43.567	1961.974	910.827	3051.951	365.523	4350.662	201.700	--undefined--	--undefined--
1116	1.140	0.00003	4	531.149	46.877	1961.540	924.428	3045.868	371.562	4349.326	240.523	--undefined--	--undefined--
1117	1.141	0.00003	4	530.749	51.742	1960.089	935.361	3047.646	386.511	4354.316	294.989	--undefined--	--undefined--
1118	1.142	0.00003	4	529.684	56.881	1960.354	932.281	3058.946	405.633	4366.049	337.685	--undefined--	--undefined--
1119	1.143	0.00003	4	527.896	62.527	1963.779	916.261	3077.875	426.302	4380.474	356.481	--undefined--	--undefined--
1120	1.144	0.00003	4	525.495	68.208	1971.596	897.858	3098.746	445.521	4390.492	351.077	--undefined--	--undefined--
1121	1.145	0.00003	4	521.316	76.264	1989.833	877.741	3123.763	470.648	4395.257	330.304	--undefined--	--undefined--
1122	1.146	0.00003	4	515.821	86.048	2013.569	849.943	3142.777	497.734	4393.450	310.942	--undefined--	--undefined--
1123	1.147	0.00003	4	507.880	101.578	2030.428	783.175	3155.684	530.558	4387.174	298.196	--undefined--	--undefined--
1124	1.148	0.00003	4	496.440	127.703	2020.994	682.264	3157.358	572.502	4376.828	297.777	--undefined--	--undefined--
1125	1.149	0.00003	4	470.016	182.202	1979.474	575.930	3129.559	683.773	4353.560	328.016	--undefined--	--undefined--
1126	1.150	0.00003	4	433.966	236.682	1936.763	560.953	3056.440	923.905	4317.189	403.304	--undefined--	--undefined--
1127	1.151	0.00003	4	412.311	319.941	1904.074	637.706	2906.798	1382.929	4275.390	525.359	--undefined--	--undefined--
1128	1.152	0.00003	5	406.127	511.490	1915.349	766.042	2545.702	2152.723	4274.652	658.101	4814.812	4715.855
1129	1.153	0.00004	4	807.711	2209.643	2039.217	713.454	3610.889	1793.241	4350.994	635.479	--undefined--	--undefined--
1130	1.154	0.00004	4	1088.095	881.278	2073.306	568.483	3443.332	1286.056	4365.032	529.662	--undefined--	--undefined--
1131	1.155	0.00006	4	1127.722	663.621	2085.881	500.401	3376.525	1044.313	4362.361	475.790	--undefined--	--undefined--
1132	1.156	0.00006	4	1139.209	590.392	2093.248	477.421	3346.028	924.375	4359.721	455.974	--undefined--	--undefined--
1133	1.157	0.00007	4	1142.016	557.138	2101.097	473.747	3323.239	836.026	4357.839	450.884	--undefined--	--undefined--
1134	1.158	0.00007	4	1142.566	547.221	2109.596	480.486	3308.360	778.206	4356.653	454.911	--undefined--	--undefined--
1135	1.159	0.00007	4	1145.171	546.606	2120.811	491.390	3297.382	731.005	4355.641	462.824	--undefined--	--undefined--
1136	1.160	0.00007	4	1150.484	551.631	2134.017	503.237	3290.421	694.365	4354.931	471.694	--undefined--	--undefined--
1137	1.161	0.00007	4	1160.984	563.618	2154.019	518.881	3285.552	657.190	4354.602	483.352	--undefined--	--undefined--
1138	1.162	0.00007	4	1174.235	580.460	2176.224	534.327	3284.143	629.745	4355.224	494.641	--undefined--	--undefined--
1139	1.163	0.00007	4	1188.867	606.627	2201.167	552.857	3285.512	610.837	4357.735	507.224	--undefined--	--undefined--
1140	1.164	0.00009	4	1199.201	650.777	2224.461	579.028	3289.415	606.298	4363.644	521.927	--undefined--	--undefined--
1141	1.165	0.00009	4	1200.079	776.875	2250.382	643.911	3299.445	630.089	4380.474	547.250	--undefined--	--undefined--
1142	1.166	0.00009	4	1186.962	1119.303	2272.242	784.056	3321.530	697.452	4411.591	573.504	--undefined--	--undefined--
1143	1.167	0.00009	4	1814.461	1743.745	2358.054	1202.622	3380.323	800.984	4455.217	582.916	--undefined--	--undefined--
1144	1.168	0.00010	5	292.807	465.074	1854.712	1002.666	2656.659	1095.200	3463.091	828.560	4490.895	572.685
1145	1.169	0.00010	5	300.715	205.758	1850.031	834.528	2731.946	891.597	3521.092	801.734	4517.622	562.456
1146	1.170	0.00010	5	292.893	102.235	1853.530	809.337	2763.013	841.789	3543.295	829.843	4527.971	576.136
1147	1.171	0.00010	5	287.087	55.671	1864.468	831.271	2816.000	873.140	3563.807	1009.247	4520.156	634.478
1148	1.172	0.00010	5	284.146	36.494	1889.622	827.948	2937.324	853.463	3695.263	1712.006	4450.037	751.255
1149	1.173	0.00010	4	282.208	26.166	1912.703	708.112	3000.967	653.333	4284.998	505.182	--undefined--	--undefined--
1150	1.174	0.00010	4	280.918	21.588	1908.520	586.349	2984.565	621.760	4285.125	296.545	--undefined--	--undefined--
1151	1.175	0.00010	4	279.551	18.670	1908.605	526.544	2938.605	709.174	4293.822	209.853	--undefined--	--undefined--
1152	1.176	0.00010	4	278.154	16.668	1915.986	508.557	2885.194	820.230	4296.965	179.516	--undefined--	--undefined--
1153	1.177	0.00010	4	276.347	14.836	1925.119	494.478	2832.934	903.284	4297.991	167.943	--undefined--	--undefined--
1154	1.178	0.00010	4	274.605	13.534	1928.382	475.360	2807.401	915.810	4298.830	167.529	--undefined--	--undefined--
1155	1.179	0.00010	4	272.808	12.481	1926.190	452.066	2796.025	893.544	4300.289	172.431	--undefined--	--undefined--
1156	1.180	0.00010	4	271.158	11.709	1920.365	430.342	2789.974	863.204	4302.099	180.613	--undefined--	--undefined--
1157	1.181	0.00010	4	269.349	11.062	1910.676	408.070	2782.792	831.174	4304.225	193.553	--undefined--	--undefined--
1158	1.182	0.00010	4	267.407	10.601	1897.004	387.247	2771.521	803.917	4305.785	211.993	--undefined--	--undefined--
1159	1.183	0.00010	4	265.666	10.396	1882.313	371.942	2757.729	785.906	4305.295	231.566	--undefined--	--undefined--
1160	1.184	0.00010	4	264.120	10.374	1867.852	361.099	2743.742	772.352	4302.302	249.480	--undefined--	--undefined--
1161	1.185	0.00010	4	262.470	10.501	1851.713	352.099	2729.847	756.426	4295.924	266.302	--undefined--	--undefined--
1162	1.186	0.00010	4	260.749	10.771	1835.292	345.208	2720.881	734.304	4286.503	278.204	--undefined--	--undefined--
1163	1.187	0.00010	4	259.267	11.091	1822.738	341.413	2721.248	709.002	4277.794	282.678	--undefined--	--undefined--
1164	1.188	0.00010	4	258.020	11.408	1814.399	340.279	2729.298	683.159	4271.459	282.825	--undefined--	--undefined--
1165	1.189	0.00010	4	256.778	11.758	1809.421	341.898	2745.892	654.058	4267.231	280.822	--undefined--	--undefined--
1166	1.190	0.00010	4	255.589	12.118	1809.617	347.009	2771.903	624.280	4266.318	278.084	--undefined--	--undefined--
1167	1.191	0.00010	4	254.647	12.411	1815.039	353.799	2801.918	599.831	4268.828	276.124	--undefined--	--undefined--
1168	1.192	0.00010	4	253.900	12.631	1823.815	360.169	2833.339	579.056	4273.615	275.235	--undefined--	--undefined--
1169	1.193	0.00010	4	253.174	12.810	1836.381	365.321	2870.579	555.662	4281.165	275.768	--undefined--	--undefined--
1170	1.194	0.00010	4	252.467	12.924	1851.079	366.760	2910.745	527.993	4291.469	279.348	--undefined--	--undefined--
1171	1.195	0.00010	4	251.871	12.972	1862.877	363.973	2943.274	502.600	4302.189	286.989	--undefined--	--undefined--
1172	1.196	0.00010	4	251.356	13.000	1870.627	359.271	2966.949	483.671	4312.363	298.954	--undefined--	--undefined--
1173	1.197	0.00010	4	250.807	13.056	1875.207	353.934	2985.290	472.674	4322.872	318.870	--undefined--	--undefined--
1174	1.198	0.00010	4	250.216	13.198	1875.909	350.535	2995.448	477.272	4331.091	349.494	--undefined--	--undefined--
1175	1.199	0.00010	4	249.671	13.451	1873.744	351.228	2995.020	497.922	4332.416	385.394	--undefined--	--undefined--
1176	1.200	0.00010	4	249.162	13.826	1870.448	355.487	2985.736	527.112	4325.754	422.602	--undefined--	--undefined--
1177	1.201	0.00010	4	248.574	14.445	1866.001	364.107	2965.635	561.727	4308.370	463.460	--undefined--	--undefined--
1178	1.202	0.00010	4	247.888	15.433	1860.042	377.784	2935.002	587.544	4279.971	498.869	--undefined--	--undefined--
1179	1.203	0.00010	4	247.212	16.712	1852.632	393.484	2905.162	590.385	4251.456	517.779	--undefined--	--undefined--
1180	1.204	0.00010	4	246.566	18.269	1843.063	409.382	2881.331	575.995	4227.739	525.227	--undefined--	--undefined--
1181	1.205	0.00010	4	245.840	20.506	1827.831	426.897	2860.364	548.398	4204.864	525.849	--undefined--	--undefined--
1182	1.206	0.00010	4	245.060	23.618	1804.021	442.349	2842.054	513.650	4181.855	518.005	--undefined--	--undefined--
1183	1.207	0.00010	4	244.385	27.014	1776.029	448.554	2827.070	484.194	4161.296	502.224	--undefined--	--undefined--
1184	1.208	0.00010	4	243.826	30.403	1748.292	445.015	2813.522	463.375	4143.500	482.507	--undefined--	--undefined--
1185	1.209	0.00010	4	243.292	34.256	1720.016	432.168	2797.366	450.570	4126.020	460.319	--undefined--	--undefined--
1186	1.210	0.00010	4	242.829	38.404	1696.631	413.215	2776.025	451.671	4109.917	443.414	--undefined--	--undefined--
1187	1.211	0.00010	5	242.517	42.034	1683.551	397.263	2750.409	466.961	4097.066	440.268	5051.813	1892.402
1188	1.212	0.00010	5	242.287	45.405	1677.160	386.162	2716.466	493.102	4084.362	451.911	4822.198	1698.668
1189	1.213	0.00010	5	242.110	48.165	1674.964	381.116	2677.083	520.907	4070.857	475.981	4675.034	1510.471
1190	1.214	0.00010	5	241.885	51.020	1673.956	380.798	2619.996	549.241	4048.065	518.367	4557.563	1279.296
1191	1.215	0.00010	5	241.627	53.195	1672.501	384.545	2562.575	561.462	4017.156	556.741	4505.532	1088.357
1192	1.216	0.00010	5	241.301	54.997	1669.411	390.219	2506.651	557.207	3980.498	575.810	4496.726	944.679
1193	1.217	0.00010	5	240.940	56.349	1664.913	395.316	2461.551	541.513	3949.691	576.265	4510.315	853.062
1194	1.218	0.00009	5	240.434	57.631	1657.607	399.461	2417.396	514.248	3918.659	569.914	4537.752	766.918
1195	1.219	0.00008	5	239.916	58.502	1649.579	400.373	2386.564	487.051	3894.326	565.770	4563.901	693.173
1196	1.220	0.00008	5	239.373	59.136	1640.711	398.366	2363.673	461.560	3873.290	563.954	4585.321	620.889
1197	1.221	0.00008	5	238.877	59.547	1631.940	394.179	2348.310	441.026	3857.850	562.025	4598.937	560.236
1198	1.222	0.00007	5	238.302	59.844	1620.073	386.291	2334.906	419.341	3845.308	556.306	4608.324	499.164
1199	1.223	0.00007	5	237.806	59.891	1607.394	376.259	2326.039	401.380	3839.861	546.482	4611.895	456.547
1200	1.224	0.00007	5	237.347	59.681	1592.860	363.603	2319.504	384.798	3839.311	532.861	4612.517	426.284
1201	1.225	0.00007	5	236.962	59.255	1578.412	350.181	2315.145	371.188	3841.730	518.740	4611.886	408.200
1202	1.226	0.00007	5	236.539	58.502	1560.514	332.660	2311.623	357.627	3846.410	502.045	4611.067	396.335
1203	1.227	0.00007	5	236.187	57.710	1544.691	316.587	2309.873	348.842	3850.720	488.893	4611.426	392.586
1204	1.228	0.00007	5	235.871	57.012	1530.346	301.904	2309.340	344.200	3853.569	478.817	4613.917	392.433
1205	1.229	0.00007	5	235.618	56.634	1518.981	290.675	2309.640	343.628	3853.823	472.423	4618.762	391.642
1206	1.230	0.00007	5	235.364	56.685	1507.414	280.458	2310.510	346.911	3850.160	467.817	4628.094	384.414
1207	1.231	0.00007	5	235.184	57.312	1498.372	274.181	2311.396	352.703	3842.694	466.193	4639.146	368.696
1208	1.232	0.00007	5	235.053	58.486	1490.243	270.341	2312.245	360.077	3831.685	467.057	4650.847	345.537
1209	1.233	0.00007	5	234.973	59.923	1483.197	268.278	2313.167	367.405	3819.003	470.142	4660.664	321.609
1210	1.234	0.00007	5	234.914	61.853	1474.714	266.523	2314.963	376.255	3800.342	476.572	4670.398	293.832
1211	1.235	0.00007	5	234.877	63.501	1466.586	264.574	2317.841	383.951	3779.300	484.159	4677.112	271.753
1212	1.236	0.00008	5	234.836	64.729	1457.836	261.384	2322.430	390.918	3754.000	491.579	4681.809	253.733
1213	1.237	0.00008	5	234.779	65.318	1449.079	256.788	2328.460	396.346	3727.824	496.354	4684.379	240.907
1214	1.238	0.00008	5	234.673	65.335	1437.204	248.604	2338.500	401.366	3695.283	498.165	4685.001	229.768
1215	1.239	0.00008	5	234.539	64.900	1424.802	238.487	2350.988	404.504	3669.380	497.378	4682.292	222.936
1216	1.240	0.00008	5	234.383	64.426	1410.997	226.361	2367.344	406.685	3653.212	498.587	4675.109	217.197
1217	1.241	0.00009	5	234.239	64.271	1397.422	214.199	2385.833	408.011	3650.960	505.197	4664.149	209.633
1218	1.242	0.00009	5	234.079	64.564	1380.160	198.730	2411.546	407.578	3666.156	520.307	4647.205	194.107
1219	1.243	0.00009	5	233.957	65.145	1363.879	184.122	2436.033	403.276	3696.447	535.023	4631.720	174.923
1220	1.244	0.00009	5	233.868	65.808	1347.890	169.806	2458.396	394.510	3738.961	541.346	4619.126	155.381
1221	1.245	0.00009	5	233.828	66.391	1334.285	157.877	2474.977	383.930	3783.403	533.667	4610.807	139.967
1222	1.246	0.00009	5	233.841	67.111	1319.818	145.980	2489.385	371.231	3836.742	506.225	4604.276	125.333
1223	1.247	0.00009	5	233.918	67.920	1308.657	138.042	2498.236	362.783	3880.210	469.200	4600.821	115.275
1224	1.248	0.00009	5	234.056	68.956	1299.478	133.120	2504.813	359.494	3916.052	429.328	4599.058	107.965
1225	1.249	0.00009	5	234.230	70.078	1292.654	131.092	2510.682	361.511	3942.067	396.569	4598.435	103.547
1226	1.250	0.00009	5	234.492	71.531	1286.039	131.276	2519.940	369.263	3966.458	366.116	4598.457	101.114
1227	1.251	0.00009	5	234.776	72.792	1281.190	133.396	2532.259	378.960	3984.054	348.065	4598.923	101.784
1228	1.252	0.00009	5	235.096	73.812	1277.265	136.800	2548.709	387.454	3998.830	338.615	4599.656	105.286
1229	1.253	0.00009	5	235.406	74.442	1274.366	140.592	2566.217	391.179	4011.027	335.495	4600.517	110.760
1230	1.254	0.00009	5	235.789	74.852	1271.653	145.626	2587.618	388.831	4025.132	335.137	4601.851	119.610
1231	1.255	0.00009	5	236.136	75.046	1269.906	150.441	2604.723	381.205	4037.790	334.834	4603.493	128.930
1232	1.256	0.00009	5	236.470	75.272	1268.889	155.205	2617.590	371.162	4049.722	332.443	4605.695	138.122
1233	1.257	0.00009	5	236.756	75.668	1268.580	159.316	2625.262	362.359	4059.231	327.961	4608.260	145.219
1234	1.258	0.00009	5	237.067	76.556	1268.904	163.888	2630.171	354.453	4068.046	320.472	4611.943	150.967
1235	1.259	0.00009	5	237.305	77.863	1269.775	167.904	2632.006	350.958	4073.049	313.127	4615.517	153.149
1236	1.260	0.00009	5	237.481	79.640	1271.149	172.158	2633.060	351.616	4074.877	306.897	4618.674	152.796
1237	1.261	0.00009	5	237.575	81.566	1272.854	176.650	2634.786	356.011	4073.821	303.084	4620.634	151.109
1238	1.262	0.00009	5	237.594	84.010	1275.536	183.261	2639.358	366.069	4069.391	301.203	4621.254	148.619
1239	1.263	0.00009	5	237.520	86.039	1278.621	190.603	2646.868	379.537	4062.745	301.754	4619.791	146.900
1240	1.264	0.00009	5	237.364	87.512	1282.163	198.809	2657.833	396.188	4054.279	303.790	4616.203	146.391
1241	1.265	0.00009	5	237.164	88.130	1285.443	206.262	2670.549	412.793	4045.681	306.300	4611.066	147.250
1242	1.266	0.00009	5	236.879	87.818	1288.661	213.695	2688.405	432.177	4035.156	309.487	4602.640	149.952
1243	1.267	0.00009	5	236.613	86.584	1289.906	217.466	2705.981	446.825	4026.045	312.207	4593.035	153.729
1244	1.268	0.00009	5	236.385	84.685	1288.558	217.202	2723.067	456.324	4017.884	314.612	4582.205	158.217
1245	1.269	0.00009	5	236.247	82.662	1284.672	213.385	2736.651	459.709	4011.384	316.594	4572.083	162.446
1246	1.270	0.00009	5	236.206	80.257	1276.898	205.507	2748.654	457.979	4004.641	319.024	4560.952	167.379
1247	1.271	0.00009	5	236.301	78.431	1267.637	197.066	2754.270	453.166	3999.297	321.808	4553.070	171.901
1248	1.272	0.00009	5	236.511	77.273	1257.383	189.374	2754.171	448.324	3994.539	325.777	4548.297	176.886
1249	1.273	0.00009	5	236.775	76.980	1247.965	184.099	2749.137	446.334	3990.493	330.972	4546.692	182.188
1250	1.274	0.00009	5	237.145	77.707	1237.327	180.487	2737.187	449.441	3985.761	339.787	4547.261	189.773
1251	1.275	0.00009	5	237.498	79.448	1228.871	179.747	2720.832	458.933	3981.705	350.609	4548.672	198.022
1252	1.276	0.00009	5	237.840	82.212	1222.284	181.152	2699.453	474.790	3978.719	363.825	4549.436	207.669
1253	1.277	0.00009	5	238.124	85.590	1218.357	183.940	2675.894	493.176	3978.055	377.157	4548.763	217.731
1254	1.278	0.00009	5	238.413	90.670	1216.490	188.650	2643.557	515.914	3981.343	393.076	4546.081	231.160
1255	1.279	0.00009	5	238.621	96.273	1217.293	193.779	2612.391	532.143	3988.913	405.719	4542.511	243.952
1256	1.280	0.00009	5	238.795	102.913	1219.873	199.519	2583.014	540.306	3999.980	415.418	4538.953	256.011
1257	1.281	0.00009	5	238.965	110.234	1223.065	205.674	2560.054	540.786	4011.288	422.057	4536.412	265.427
1258	1.282	0.00009	5	239.255	121.525	1227.037	215.465	2537.829	536.036	4023.905	429.123	4534.498	274.210
1259	1.283	0.00009	5	239.637	135.333	1230.035	228.133	2521.033	530.367	4033.013	436.555	4533.751	279.932
1260	1.284	0.00009	5	240.090	153.443	1231.839	245.337	2505.467	525.730	4039.217	445.704	4534.065	283.678
1261	1.285	0.00009	5	240.449	174.244	1232.148	265.126	2491.219	522.856	4042.260	455.173	4535.676	285.279
1262	1.286	0.00009	5	240.561	205.013	1230.677	293.429	2473.913	520.592	4042.562	466.759	4539.980	284.306
1263	1.287	0.00009	5	240.058	238.646	1227.539	322.327	2458.753	519.059	4039.585	476.428	4546.535	279.974
1264	1.288	0.00009	5	238.669	276.899	1222.707	352.191	2445.345	517.855	4033.814	484.615	4555.192	272.294
1265	1.289	0.00009	5	236.432	314.952	1216.814	378.603	2435.189	517.196	4026.913	490.811	4564.028	263.158
1266	1.290	0.00009	5	232.370	363.578	1207.695	407.603	2425.522	517.228	4018.103	497.025	4574.513	251.236
1267	1.291	0.00007	5	227.352	409.788	1197.129	430.339	2418.559	518.206	4011.195	501.817	4582.958	241.219
1268	1.292	0.00007	5	221.322	456.411	1184.239	448.557	2412.723	520.191	4006.897	505.809	4589.607	233.590
1269	1.293	0.00007	5	215.279	498.410	1170.470	460.764	2407.831	523.041	4006.148	508.637	4593.782	229.642
1270	1.294	0.00007	5	207.718	547.915	1151.654	469.654	2401.731	528.323	4009.737	510.820	4596.220	229.504
1271	1.295	0.00007	5	200.602	592.848	1132.912	472.483	2395.052	535.978	4017.010	511.693	4595.854	234.351
1272	1.296	0.00007	5	192.859	638.720	1113.839	471.401	2386.156	547.980	4026.833	512.296	4592.857	244.267
1273	1.297	0.00007	5	184.201	683.227	1097.240	469.201	2374.865	564.535	4036.204	514.420	4587.661	257.640
1274	1.298	0.00007	5	169.152	743.565	1079.316	469.336	2355.428	594.244	4045.084	522.960	4577.994	278.372
1275	1.299	0.00007	5	147.680	807.612	1065.433	476.694	2330.621	633.189	4047.960	540.838	4565.772	299.773
1276	1.300	0.00006	5	119.565	876.019	1054.800	494.814	2299.096	684.596	4042.867	570.132	4551.350	319.532
1277	1.301	0.0001	5	106.920	928.238	1049.735	522.903	2266.175	742.196	4029.367	602.769	4538.757	332.113
1278	1.302	0.0001	5	154.702	945.986	1054.414	572.404	2225.576	824.390	4002.472	636.215	4528.342	338.008
1279	1.303	0.0001	5	235.600	893.465	1076.145	627.534	2193.092	912.530	3973.199	649.540	4524.528	336.753
1280	1.304	0.0001	5	306.128	785.921	1118.830	671.404	2171.461	1014.294	3947.326	645.949	4523.646	333.268
1281	1.305	0.0001	5	347.067	675.252	1168.725	679.386	2166.013	1117.807	3930.544	634.975	4522.432	330.912
1282	1.306	0.0001	5	371.925	566.188	1220.024	650.439	2179.201	1236.439	3919.601	621.853	4518.700	330.586
1283	1.307	0.0001	5	385.629	467.776	1260.456	596.201	2216.119	1356.363	3914.054	611.096	4511.349	332.743
1284	1.308	0.0001	5	392.003	392.496	1282.985	546.537	2265.762	1446.066	3912.048	606.036	4502.338	335.917
1285	1.309	0.0001	5	395.212	333.740	1294.253	510.804	2318.545	1507.424	3911.094	605.554	4493.219	338.838
1286	1.310	0.0001	5	397.469	278.973	1299.154	486.852	2378.841	1554.413	3909.962	609.245	4483.193	341.418
1287	1.311	0.0001	5	399.741	231.760	1297.273	483.948	2439.303	1588.173	3907.983	617.684	4473.125	343.114
1288	1.312	0.0001	5	402.596	201.086	1289.231	508.925	2482.009	1613.826	3904.838	628.873	4464.774	343.386
1289	1.313	0.0001	5	406.484	184.408	1275.968	563.197	2503.955	1644.561	3899.613	641.792	4457.214	342.028
1290	1.314	0.0001	5	413.056	179.168	1252.997	674.338	2502.376	1702.476	3888.238	659.672	4447.457	337.533
1291	1.315	0.0001	5	425.143	190.400	1213.623	900.747	2454.662	1820.657	3862.033	684.580	4432.921	326.675
1292	1.316	0.0001	5	445.537	215.752	1152.416	1336.087	2317.036	2001.601	3814.955	707.714	4414.646	308.797
1293	1.317	0.0001	5	478.332	239.175	809.474	2690.992	1994.782	1883.308	3746.432	708.745	4394.359	285.320
1294	1.318	0.0001	4	523.270	230.322	1936.764	1368.190	3655.958	654.468	4370.179	254.503	--undefined--	--undefined--
1295	1.319	0.0001	4	557.129	192.882	1942.653	1125.759	3574.352	544.784	4344.150	221.601	--undefined--	--undefined--
1296	1.320	0.0001	4	575.367	162.988	1944.988	999.449	3525.076	445.646	4321.677	196.583	--undefined--	--undefined--
1297	1.321	0.0001	4	585.884	142.499	1944.809	925.511	3496.064	374.029	4302.611	179.008	--undefined--	--undefined--
1298	1.322	0.0001	4	592.947	125.240	1943.138	873.613	3475.545	316.577	4283.293	164.740	--undefined--	--undefined--
1299	1.323	0.0001	4	596.831	110.550	1940.052	843.020	3461.931	274.881	4264.516	154.205	--undefined--	--undefined--
1300	1.324	0.0001	4	598.142	99.638	1935.939	834.801	3454.523	251.754	4249.752	148.587	--undefined--	--undefined--
1301	1.325	0.0001	4	598.302	91.295	1930.740	843.169	3450.391	240.991	4238.543	146.667	--undefined--	--undefined--
1302	1.326	0.0001	4	597.951	83.576	1922.880	871.661	3447.545	239.062	4228.711	147.961	--undefined--	--undefined--
1303	1.327	0.0001	4	597.314	76.747	1910.990	930.988	3445.498	247.909	4221.063	153.181	--undefined--	--undefined--
1304	1.328	0.0001	4	596.578	71.825	1895.917	1018.597	3443.989	265.391	4217.232	161.059	--undefined--	--undefined--
1305	1.329	0.0001	4	595.637	67.972	1874.581	1147.006	3442.481	290.511	4217.177	171.400	--undefined--	--undefined--
1306	1.330	0.0001	4	594.570	65.124	1845.732	1307.565	3440.981	317.429	4221.178	182.400	--undefined--	--undefined--
1307	1.331	0.0001	4	593.106	62.131	1787.680	1565.051	3439.034	348.847	4231.790	196.547	--undefined--	--undefined--
1308	1.332	0.0001	4	591.793	59.521	1686.889	1860.846	3437.379	369.539	4246.873	208.963	--undefined--	--undefined--
1309	1.333	0.0001	4	590.722	56.994	1485.356	2131.142	3436.528	377.606	4265.567	219.438	--undefined--	--undefined--
1310	1.334	0.0001	5	590.047	54.872	1265.870	2052.431	1550.334	6645.799	3437.318	374.976	4283.517	226.896
1311	1.335	0.0001	5	589.588	52.721	1181.387	1855.170	2337.024	5397.656	3441.322	366.443	4303.049	234.296
1312	1.336	0.0001	5	589.416	51.234	1159.065	1774.290	2494.443	4967.967	3448.616	361.279	4316.437	241.419
1313	1.337	0.0001	5	589.416	50.248	1145.460	1745.402	2548.245	4595.860	3459.719	363.554	4323.855	250.295
1314	1.338	0.0001	5	589.555	49.779	1131.689	1742.198	2564.066	4235.324	3473.111	372.876	4324.868	260.023
1315	1.339	0.0001	5	589.918	49.722	1110.552	1752.899	2560.691	3802.708	3492.659	390.285	4319.230	272.224
1316	1.340	0.0001	5	590.443	50.127	1086.246	1767.076	2543.495	3436.739	3512.158	406.344	4309.034	281.025
1317	1.341	0.0001	5	591.113	50.949	1056.799	1772.689	2523.299	3107.865	3530.132	415.284	4296.798	284.441
1318	1.342	0.0001	5	591.791	52.049	1026.465	1756.518	2513.788	2841.094	3542.103	412.521	4286.695	281.627
1319	1.343	0.0001	5	592.630	53.791	990.368	1700.135	2523.450	2566.561	3547.885	394.146	4278.654	272.284
1320	1.344	0.0001	5	593.413	55.728	962.847	1621.679	2552.390	2362.440	3544.115	366.357	4276.008	261.615
1321	1.345	0.0001	5	594.251	57.875	942.656	1537.346	2593.576	2199.072	3532.994	333.132	4277.087	252.348
1322	1.346	0.0001	5	595.103	59.904	929.891	1469.312	2633.798	2077.573	3518.650	301.128	4280.109	246.395
1323	1.347	0.0001	5	596.268	62.351	919.823	1406.163	2676.621	1955.790	3499.198	262.345	4284.841	241.851
1324	1.348	0.0001	5	597.447	64.604	914.397	1364.127	2706.531	1860.013	3481.752	227.836	4289.259	238.519
1325	1.349	0.0001	5	598.670	66.926	912.125	1329.553	2728.879	1773.613	3466.340	196.150	4293.301	234.092
1326	1.350	0.0001	5	599.766	69.146	912.878	1297.011	2746.954	1699.801	3454.694	171.388	4296.644	227.973
1327	1.351	0.0001	5	601.000	71.973	917.570	1249.570	2772.346	1615.459	3443.673	148.175	4300.501	217.752
1328	1.352	0.0001	5	602.019	74.729	925.291	1196.028	2803.524	1542.059	3435.959	133.544	4304.130	206.761
1329	1.353	0.0001	5	602.910	77.692	935.372	1134.447	2843.254	1471.536	3429.956	124.903	4307.848	196.007
1330	1.354	0.0001	5	603.609	80.672	945.464	1073.966	2884.894	1408.070	3425.550	121.587	4311.060	187.623
1331	1.355	0.0001	5	604.335	84.796	957.391	999.167	2937.001	1330.461	3421.175	122.320	4314.163	179.950
1332	1.356	0.0001	5	604.956	89.241	967.386	931.740	2981.648	1257.519	3417.843	126.571	4315.725	175.099
1333	1.357	0.0001	5	605.641	94.366	976.320	868.550	3019.103	1184.244	3415.188	133.372	4315.586	171.885
1334	1.358	0.0001	5	606.434	99.598	983.661	817.125	3044.874	1119.181	3413.560	141.097	4313.752	169.964
1335	1.359	0.0001	5	607.773	106.636	991.656	765.407	3064.825	1045.514	3413.002	151.531	4309.366	168.539
1336	1.360	0.0001	5	609.544	114.015	998.166	729.174	3073.829	984.464	3414.191	161.655	4303.481	168.017
1337	1.361	0.0001	5	612.002	122.640	1003.706	704.616	3076.246	931.728	3417.178	172.059	4296.228	168.528
1338	1.362	0.0001	5	614.970	131.892	1007.742	692.819	3074.654	892.333	3421.393	181.802	4288.859	170.277
1339	1.363	0.0001	5	619.593	145.088	1011.200	691.677	3069.535	856.240	3428.102	194.028	4279.582	174.377
1340	1.364	0.0001	5	624.884	159.285	1012.967	701.683	3062.067	832.547	3435.620	205.745	4271.200	180.032
1341	1.365	0.0001	5	631.053	175.379	1013.259	719.182	3051.536	814.817	3444.360	217.641	4263.554	187.005
1342	1.366	0.0001	5	637.169	191.423	1012.051	737.582	3039.002	800.358	3453.439	228.138	4257.822	193.777
1343	1.367	0.0001	5	644.641	211.901	1008.535	756.204	3020.390	780.106	3466.006	239.421	4253.174	201.321
1344	1.368	0.0001	5	650.982	230.845	1003.482	763.636	3000.614	754.848	3479.315	247.135	4251.414	206.557
1345	1.369	0.0001	5	656.061	248.246	997.472	757.491	2979.381	721.475	3494.088	250.426	4251.873	209.166
1346	1.370	0.0001	5	658.954	260.826	992.224	739.550	2960.067	684.938	3507.939	248.015	4253.587	208.619
1347	1.371	0.0001	5	659.951	269.579	987.241	706.261	2938.790	636.598	3523.240	237.654	4255.994	203.991
1348	1.372	0.0001	5	659.108	270.796	983.870	670.735	2922.769	591.629	3534.309	222.618	4257.266	196.368
1349	1.373	0.00008	5	657.861	266.845	980.711	636.207	2910.949	548.834	3541.874	205.568	4256.869	186.612
1350	1.374	0.00008	5	657.375	260.943	977.230	608.583	2903.742	513.368	3546.076	191.087	4255.059	177.070
1351	1.375	0.00008	5	658.287	253.678	971.812	581.572	2898.731	476.725	3548.754	177.365	4251.717	166.211
1352	1.376	0.00008	5	660.573	248.516	965.754	562.527	2896.774	450.102	3549.765	169.255	4248.272	157.859
1353	1.377	0.00008	5	663.832	245.453	959.095	547.879	2896.774	430.951	3549.836	165.519	4244.879	151.630
1354	1.378	0.00008	5	667.159	244.511	952.984	537.146	2898.279	420.176	3549.199	165.660	4241.830	147.953
1355	1.379	0.00007	5	671.086	245.488	946.022	525.972	2901.958	415.262	3547.517	169.766	4237.917	145.875
1356	1.380	0.00007	5	674.390	248.269	940.020	516.306	2907.162	417.870	3544.954	176.631	4233.791	145.812
1357	1.381	0.00007	5	677.488	252.874	933.932	506.574	2914.049	426.649	3541.165	185.407	4229.054	146.968
1358	1.382	0.00007	5	680.346	258.733	927.714	497.261	2921.499	439.450	3536.397	193.646	4224.364	148.573
1359	1.383	0.00007	5	684.120	267.995	918.643	484.623	2931.156	460.005	3528.788	201.321	4218.656	150.600
1360	1.384	0.00007	5	688.058	278.841	908.387	470.190	2939.482	482.560	3520.197	203.684	4213.738	152.183
1361	1.385	0.00007	5	692.406	292.540	896.293	451.074	2945.750	506.776	3510.799	200.004	4209.323	153.397
1362	1.386	0.00007	5	696.493	308.606	884.046	427.848	2948.382	528.309	3502.417	191.576	4205.691	154.277
1363	1.387	0.00007	5	700.747	334.937	868.896	390.455	2946.507	551.350	3493.465	177.020	4201.508	155.283
1364	1.388	0.00007	5	701.903	367.658	857.128	346.594	2939.631	568.853	3486.640	161.941	4197.473	156.393
1365	1.389	0.00007	5	697.849	404.344	850.564	299.557	2928.328	583.448	3480.968	147.342	4192.949	157.896
1366	1.390	0.00007	5	690.768	434.485	848.562	261.878	2915.148	595.482	3476.497	135.619	4188.293	159.759
1367	1.391	0.00007	5	681.612	464.554	848.254	225.895	2897.216	610.115	3471.636	124.201	4182.042	162.777
1368	1.392	0.00007	5	674.446	487.614	848.598	200.393	2880.134	624.335	3467.501	116.452	4175.789	166.381
1369	1.393	0.00007	5	668.961	507.471	849.153	180.274	2863.431	637.949	3463.735	111.210	4169.117	170.775
1370	1.394	0.00007	5	665.246	522.963	849.815	165.444	2849.044	646.749	3460.826	108.461	4162.671	175.344
1371	1.395	0.00007	5	661.738	537.728	850.884	150.821	2833.089	647.330	3458.274	107.421	4154.355	181.239
1372	1.396	0.00007	5	658.726	546.484	852.194	139.686	2819.904	634.081	3456.960	108.217	4146.171	186.549
1373	1.397	0.00007	5	655.346	549.776	853.806	130.215	2808.220	607.232	3456.415	109.997	4137.765	191.095
1374	1.398	0.00007	5	651.689	548.116	855.438	122.749	2798.927	574.333	3456.095	111.657	4130.565	193.920
1375	1.399	0.00007	5	646.443	541.792	857.398	114.915	2789.373	531.100	3455.061	112.531	4123.693	194.937
1376	1.400	0.00007	5	640.845	534.207	858.996	108.581	2781.990	494.078	3452.810	111.411	4120.193	193.279
1377	1.401	0.00007	5	634.577	527.303	860.278	102.910	2775.693	463.464	3449.179	108.276	4119.769	189.449
1378	1.402	0.00007	5	628.359	523.124	861.139	98.267	2770.733	442.438	3445.108	104.236	4121.481	184.892
1379	1.403	0.00007	5	620.292	522.006	861.807	93.328	2765.675	425.647	3440.254	99.309	4124.472	179.626
1380	1.404	0.00007	5	612.408	525.420	862.067	89.463	2762.063	417.346	3436.811	96.223	4126.247	176.490
1381	1.405	0.00007	5	604.293	533.241	861.962	86.354	2759.707	414.234	3435.038	95.701	4125.684	175.947
1382	1.406	0.00007	5	597.065	543.606	861.536	84.306	2758.786	414.012	3435.181	98.042	4122.615	177.792
1383	1.407	0.00007	5	589.162	558.205	860.655	82.939	2759.032	413.814	3437.632	104.606	4115.972	182.067
1384	1.408	0.00007	5	583.164	570.889	859.614	82.754	2759.994	410.587	3441.837	113.893	4108.077	186.505
1385	1.409	0.00007	5	578.637	580.164	858.519	83.540	2760.914	402.555	3447.371	125.533	4099.852	190.096
1386	1.410	0.00007	5	575.762	584.261	857.605	85.036	2761.176	391.238	3452.838	137.375	4093.054	192.127
1387	1.411	0.00007	5	573.560	583.717	856.711	87.765	2760.400	374.849	3458.741	152.435	4086.303	193.328
1388	1.412	0.00007	5	572.393	579.448	856.079	91.188	2758.657	360.126	3462.276	166.947	4081.317	194.166
1389	1.413	0.00007	5	571.836	573.792	855.509	95.623	2756.237	348.340	3462.929	182.629	4077.001	195.896
1390	1.414	0.00007	5	571.833	569.370	854.870	100.726	2753.854	341.597	3460.400	198.589	4073.301	199.198
1391	1.415	0.00007	5	572.533	567.158	853.653	108.537	2751.349	339.208	3453.127	220.802	4069.032	206.587
1392	1.416	0.00007	5	573.956	569.623	851.788	117.729	2749.896	342.071	3442.684	244.744	4065.706	217.940
1393	1.417	0.00007	5	576.350	576.953	848.913	129.405	2749.584	348.255	3429.571	272.238	4064.033	235.030
1394	1.418	0.00007	5	579.778	586.902	845.243	142.821	2750.294	354.579	3416.618	299.599	4065.522	256.378
1395	1.419	0.00007	5	586.452	598.637	839.451	163.812	2751.735	359.315	3401.753	332.523	4074.154	288.609
1396	1.420	0.00007	5	596.243	601.074	833.053	190.016	2752.114	357.691	3390.112	357.759	4092.051	319.697
1397	1.421	0.00007	5	610.231	584.498	826.394	226.873	2749.800	349.466	3380.243	373.223	4121.372	342.176
1398	1.422	0.00007	5	625.163	543.681	822.011	275.349	2744.781	338.048	3371.921	378.172	4155.894	346.273
1399	1.423	0.00007	5	635.490	456.842	828.451	359.036	2736.192	323.279	3362.279	377.470	4200.113	328.364
1400	1.424	0.00007	5	625.064	377.067	856.612	428.517	2727.715	311.880	3354.069	376.105	4236.746	298.190
1401	1.425	0.00007	5	610.018	328.229	889.813	464.104	2720.202	304.372	3346.421	377.158	4266.501	265.171
1402	1.426	0.00007	5	599.401	302.649	915.838	477.511	2714.968	301.516	3339.360	380.690	4287.397	238.154
1403	1.427	0.00007	5	591.004	287.262	940.055	480.294	2711.076	302.817	3329.778	387.587	4305.953	212.217
1404	1.428	0.00007	5	586.424	282.684	956.372	475.868	2709.621	307.131	3319.494	395.874	4318.301	194.778
1405	1.429	0.00006	5	583.485	283.061	969.117	467.801	2709.594	311.794	3308.196	405.930	4327.766	182.576
1406	1.430	0.00006	5	581.262	284.892	979.516	458.366	2710.219	313.549	3298.030	417.086	4335.039	175.298
1407	1.431	0.00006	5	578.436	286.505	992.391	444.938	2711.377	309.374	3287.696	434.585	4343.417	170.809
1408	1.432	0.00006	5	575.609	286.564	1005.424	430.860	2713.045	298.220	3281.747	456.977	4351.911	170.690
1409	1.433	0.00006	5	572.865	285.772	1019.611	415.114	2715.873	280.768	3280.802	487.969	4362.354	174.503
1410	1.434	0.00008	5	570.744	285.293	1033.043	399.090	2719.700	261.018	3285.450	524.372	4374.585	181.068
1411	1.435	0.00008	5	569.029	285.941	1047.690	379.115	2724.907	237.175	3297.104	570.845	4392.026	190.042
1412	1.436	0.00009	5	568.026	288.432	1062.618	354.519	2730.819	211.654	3315.670	621.110	4415.806	197.700
1413	1.437	0.0001	5	568.061	292.319	1074.697	330.727	2735.854	191.435	3333.442	658.693	4439.998	198.367
1414	1.438	0.0001	5	569.026	297.269	1084.141	309.853	2740.019	177.031	3346.072	683.197	4461.305	192.411
1415	1.439	0.0001	5	571.077	304.523	1092.950	289.083	2744.026	165.826	3353.355	701.156	4481.576	180.579
1416	1.440	0.0001	5	574.010	314.777	1100.983	269.099	2747.145	158.584	3352.302	713.369	4498.747	165.249
1417	1.441	0.0001	5	576.547	326.194	1107.147	252.246	2748.038	155.708	3343.056	719.526	4510.261	151.664
1418	1.442	0.0002	5	578.044	337.778	1111.907	237.293	2746.575	155.539	3328.011	720.741	4517.946	140.674
1419	1.443	0.0002	5	578.251	350.677	1116.433	220.825	2742.049	157.295	3304.618	715.875	4524.154	130.283
1420	1.444	0.0002	5	576.468	362.511	1120.963	202.941	2733.642	160.569	3271.874	701.080	4529.094	120.815
1421	1.445	0.0002	5	573.110	368.557	1125.256	187.004	2723.285	164.011	3236.481	677.373	4532.605	113.622
1422	1.446	0.0002	5	568.517	367.968	1130.099	171.792	2711.187	167.446	3197.467	643.494	4535.717	107.653
1423	1.447	0.0002	5	563.728	361.284	1135.139	158.565	2699.266	170.502	3160.578	604.384	4538.684	103.121
1424	1.448	0.0002	5	557.804	347.001	1141.884	143.058	2684.248	173.976	3117.684	549.494	4543.094	98.491
1425	1.449	0.0002	5	552.695	330.744	1148.352	128.721	2670.161	176.335	3083.224	496.417	4548.523	94.551
1426	1.450	0.0002	5	548.253	314.856	1154.533	114.067	2656.619	176.878	3056.252	447.407	4555.455	90.361
1427	1.451	0.0002	5	544.965	303.374	1159.445	100.728	2646.095	175.385	3039.266	411.687	4562.627	86.160
1428	1.452	0.0002	5	542.017	296.022	1164.076	85.523	2637.753	171.850	3028.183	384.400	4571.102	81.203
1429	1.453	0.0002	5	540.187	297.059	1167.071	73.215	2635.739	168.358	3026.003	375.955	4577.546	77.908
1430	1.454	0.0002	5	539.016	305.946	1169.091	62.958	2639.758	165.586	3030.094	383.168	4582.056	76.876
1431	1.455	0.0002	5	538.342	320.098	1170.354	55.406	2648.348	163.567	3037.853	402.318	4584.388	78.320
1432	1.456	0.0002	5	537.776	342.560	1171.516	48.228	2663.308	160.577	3050.354	439.003	4585.185	83.031
1433	1.457	0.0002	5	537.275	365.942	1172.555	43.078	2678.939	156.180	3063.224	482.513	4584.317	89.911
1434	1.458	0.0002	5	536.675	390.283	1173.831	39.058	2693.457	150.455	3075.615	530.753	4582.196	98.963
1435	1.459	0.0002	5	536.074	413.051	1175.363	36.319	2703.786	145.666	3084.332	574.357	4579.305	109.034
1436	1.460	0.0002	5	535.495	442.165	1177.808	34.178	2711.519	143.038	3088.411	621.936	4574.599	123.787
1437	1.461	0.0002	5	535.345	471.450	1180.674	33.301	2714.281	145.447	3084.090	658.384	4568.932	140.637
1438	1.462	0.0002	5	535.648	502.856	1184.101	33.412	2713.575	153.337	3072.412	685.963	4561.752	161.845
1439	1.463	0.0002	5	536.139	531.763	1187.630	34.321	2710.461	165.426	3057.578	701.448	4553.777	186.181
1440	1.464	0.0002	5	536.442	564.238	1192.277	36.415	2703.890	185.788	3038.765	705.452	4542.410	223.765
1441	1.465	0.0002	5	535.809	589.657	1196.856	39.387	2694.782	208.883	3025.035	693.758	4530.631	268.403
1442	1.466	0.0002	5	533.905	609.551	1201.731	43.583	2681.864	233.127	3018.552	668.548	4518.403	324.730
1443	1.467	0.0002	5	531.152	622.232	1206.504	48.744	2666.431	251.351	3020.702	637.856	4508.021	386.873
1444	1.468	0.0002	5	527.207	629.824	1212.972	57.071	2644.603	261.442	3032.363	598.424	4498.248	473.843
1445	1.469	0.0002	5	523.837	628.167	1220.191	67.042	2624.123	256.779	3048.123	564.407	4493.193	560.736
1446	1.470	0.0002	5	521.346	616.688	1229.524	78.911	2605.360	241.438	3065.154	533.679	4492.048	646.808
1447	1.471	0.0002	5	519.838	597.294	1240.569	89.902	2590.492	222.159	3080.405	508.649	4493.299	717.798
1448	1.472	0.0002	5	518.205	565.959	1256.976	99.617	2575.450	196.741	3098.943	482.760	4495.009	789.550
1449	1.473	0.0002	5	516.225	537.087	1273.039	101.814	2564.180	174.274	3117.732	464.298	4493.750	845.196
1450	1.474	0.0002	5	514.188	516.072	1287.153	97.643	2555.243	154.755	3139.590	452.829	4487.053	899.812
1451	1.475	0.0002	5	513.223	506.574	1297.018	91.026	2549.229	140.645	3162.475	449.781	4474.682	956.649
1452	1.476	0.0002	5	514.035	505.312	1305.651	83.137	2544.958	128.671	3192.854	455.626	4450.982	1039.908
1453	1.477	0.0002	5	516.640	509.439	1311.872	77.760	2544.221	122.068	3221.623	469.191	4420.623	1130.074
1454	1.478	0.0002	5	520.307	514.035	1317.658	74.574	2546.749	118.810	3249.261	489.510	4382.258	1227.719
1455	1.479	0.0002	5	523.748	515.560	1323.119	73.333	2551.759	117.813	3272.391	513.073	4340.822	1315.930
1456	1.480	0.0002	5	527.081	511.563	1330.209	73.300	2560.413	117.736	3297.528	546.710	4283.468	1411.724
1457	1.481	0.0002	5	528.802	501.794	1337.133	74.014	2569.571	117.664	3318.736	581.642	4223.882	1482.569
1458	1.482	0.0002	5	528.983	487.612	1344.090	74.917	2578.295	117.149	3338.932	620.107	4157.037	1531.639
1459	1.483	0.0002	5	527.802	473.233	1349.976	75.665	2584.586	116.568	3356.680	659.398	4088.631	1552.814
1460	1.484	0.0002	5	524.916	457.572	1355.840	76.435	2588.851	116.673	3377.078	717.310	3994.763	1540.030
1461	1.485	0.0002	5	521.263	447.310	1359.602	77.144	2589.023	118.563	3394.583	791.482	3896.838	1477.717
1462	1.486	0.0002	5	517.116	441.962	1361.683	77.997	2585.675	122.881	3409.053	909.154	3792.323	1341.987
1463	1.487	0.0002	5	513.249	440.917	1362.301	78.965	2580.131	129.078	3395.885	1093.154	3721.195	1118.700
1464	1.488	0.0002	5	508.758	443.040	1361.931	80.454	2571.555	139.081	3301.528	1256.224	3720.511	892.023
1465	1.489	0.0002	5	504.869	446.904	1361.039	82.305	2563.148	150.168	3222.748	1309.139	3724.007	780.726
1466	1.490	0.0002	5	501.171	451.718	1360.022	84.860	2555.237	162.496	3165.428	1337.038	3718.889	706.971
1467	1.491	0.0002	5	497.616	457.051	1359.132	88.332	2548.286	175.431	3125.944	1365.242	3707.436	651.509
1468	1.492	0.00009	5	494.188	462.843	1358.531	92.825	2542.206	188.094	3099.871	1404.025	3692.372	605.155
1469	1.493	0.00009	5	490.881	469.273	1358.353	98.290	2536.471	199.230	3084.156	1456.704	3676.167	563.538
1470	1.494	0.00009	5	487.657	476.553	1358.741	104.556	2530.372	207.397	3077.635	1524.229	3660.616	525.060
1471	1.495	0.00009	5	484.445	484.818	1359.845	111.400	2523.337	211.539	3080.166	1608.224	3646.696	489.023
1472	1.496	0.00009	5	481.194	494.269	1361.804	118.615	2515.200	211.598	3090.924	1711.602	3634.919	454.405
1473	1.497	0.00009	5	477.915	505.457	1364.699	126.016	2506.253	208.694	3107.079	1836.576	3625.799	420.009
1474	1.498	0.00009	5	474.661	519.495	1368.484	133.387	2497.078	204.755	3123.750	1981.395	3619.898	385.578
1475	1.499	0.00009	5	471.425	537.927	1372.934	140.446	2488.301	201.889	3135.134	2137.755	3617.395	352.444
1476	1.500	0.00009	5	468.044	562.123	1377.626	146.890	2480.368	201.863	3136.033	2290.211	3617.776	322.848
1477	1.501	0.00009	5	464.214	592.356	1382.021	152.439	2473.422	205.772	3123.297	2418.060	3620.045	298.691
1478	1.502	0.00009	5	459.662	626.932	1385.632	156.806	2467.308	213.828	3097.340	2500.400	3623.183	280.848
1479	1.503	0.00007	5	454.435	662.018	1388.200	159.645	2461.728	225.190	3063.065	2524.795	3626.451	269.229
1480	1.504	0.00007	5	449.110	692.827	1389.800	160.639	2456.497	237.940	3028.554	2496.146	3629.435	263.195
1481	1.505	0.00006	5	444.597	715.887	1390.790	159.742	2451.747	249.488	3001.522	2437.746	3631.947	262.058
1482	1.506	0.00006	5	441.624	730.643	1391.625	157.351	2447.878	257.463	2986.641	2381.120	3633.891	265.520
1483	1.507	0.00006	5	440.359	738.939	1392.657	154.168	2445.215	260.630	2985.943	2352.770	3635.192	273.941
1484	1.508	0.00006	5	440.486	743.158	1394.024	150.881	2443.654	259.239	3000.614	2366.626	3635.790	288.292
1485	1.509	0.00006	5	441.476	744.805	1395.666	147.891	2442.671	254.723	3031.649	2422.090	3635.695	309.860
1486	1.510	0.00006	5	442.790	744.293	1397.384	145.254	2441.699	249.113	3078.694	2503.992	3635.080	339.923
1487	1.511	0.00006	5	443.962	741.552	1398.949	142.806	2440.593	244.462	3137.823	2584.264	3634.421	379.554
1488	1.512	0.00006	5	444.665	736.712	1400.195	140.379	2439.852	242.483	3199.842	2628.805	3634.634	429.403
1489	1.513	0.00006	5	444.780	730.262	1401.097	137.953	2440.443	244.377	3251.512	2611.244	3637.182	489.143
1490	1.514	0.00005	5	444.454	722.642	1401.780	135.635	2443.322	250.658	3280.560	2526.823	3644.128	556.256
1491	1.515	0.00005	5	444.074	713.718	1402.475	133.512	2448.829	260.832	3281.137	2394.155	3657.768	624.564
1492	1.516	0.00005	5	444.101	702.689	1403.452	131.521	2456.088	273.139	3256.148	2241.648	3679.120	684.479
1493	1.517	0.00005	5	444.773	688.785	1404.944	129.507	2462.655	284.768	3216.453	2088.292	3705.894	728.524
1494	1.518	0.00005	5	445.814	672.603	1407.099	127.439	2465.040	292.664	3175.875	1934.546	3733.691	759.244
1495	1.519	0.00005	5	446.429	657.247	1409.977	125.617	2460.643	294.377	3143.256	1775.322	3759.914	787.454
1496	1.520	0.00004	5	445.551	648.199	1413.558	124.646	2450.049	288.912	3118.887	1617.170	3784.404	823.321
1497	1.521	0.00004	5	441.996	651.823	1417.673	125.243	2437.015	278.056	3097.506	1474.366	3807.453	872.308
1498	1.522	0.00004	5	434.315	674.040	1421.917	128.044	2425.771	266.157	3073.972	1356.238	3828.288	935.303
1499	1.523	0.00004	5	420.248	720.656	1425.704	133.564	2418.863	257.414	3046.946	1267.216	3843.679	1008.185
1500	1.524	0.00004	5	395.245	799.392	1428.417	142.311	2417.212	253.901	3018.252	1214.275	3846.955	1081.094
1501	1.525	0.00004	5	347.905	922.574	1429.503	154.815	2420.878	255.763	2988.572	1208.755	3830.175	1138.916
1502	1.526	0.00004	5	238.663	1110.069	1428.440	171.284	2429.311	262.120	2952.312	1261.720	3790.079	1163.537
1503	1.527	0.00004	4	1424.815	190.977	2441.336	271.486	2893.844	1373.992	3734.403	1140.500	--undefined--	--undefined--
1504	1.528	0.00004	4	1418.691	211.943	2455.352	281.813	2791.293	1510.808	3681.334	1075.580	--undefined--	--undefined--
1505	1.529	0.00004	4	1411.040	231.793	2469.575	290.767	2645.490	1586.869	3643.547	1000.681	--undefined--	--undefined--
1506	1.530	0.00004	4	1403.519	249.164	2482.240	296.699	2506.704	1549.638	3619.616	941.505	--undefined--	--undefined--
1507	1.531	0.00004	4	1397.557	264.090	2419.240	1462.806	2492.138	299.691	3605.041	902.933	--undefined--	--undefined--
1508	1.532	0.00003	4	1393.780	276.992	2377.277	1392.166	2499.191	301.252	3598.072	879.862	--undefined--	--undefined--
1509	1.533	0.00003	4	1392.133	287.884	2364.338	1345.381	2504.313	303.058	3599.111	864.897	--undefined--	--undefined--
1510	1.534	0.00003	4	1392.197	296.366	2370.937	1305.362	2508.764	306.176	3609.055	850.844	--undefined--	--undefined--
1511	1.535	0.00003	4	1393.388	301.921	2390.540	1251.145	2513.639	310.851	3627.580	831.232	--undefined--	--undefined--
1512	1.536	0.00003	4	1395.059	304.236	2414.740	1169.896	2519.625	316.554	3651.865	801.366	--undefined--	--undefined--
1513	1.537	0.00003	4	1396.576	303.473	2434.626	1065.808	2526.867	322.297	3677.071	760.924	--undefined--	--undefined--
1514	1.538	0.00003	4	1397.444	300.358	2446.117	955.575	2534.881	327.123	3698.850	714.881	--undefined--	--undefined--
1515	1.539	0.00003	4	1397.476	295.954	2450.965	855.467	2542.500	330.514	3715.314	670.464	--undefined--	--undefined--
1516	1.540	0.00003	4	1396.884	291.285	2453.867	774.907	2547.900	332.792	3726.785	633.650	--undefined--	--undefined--
1517	1.541	0.00003	4	1396.194	287.114	2460.097	717.423	2548.813	335.170	3734.524	608.225	--undefined--	--undefined--
1518	1.542	0.00003	4	1396.023	283.980	2474.630	685.382	2542.728	337.662	3739.762	596.616	--undefined--	--undefined--
1519	1.543	0.00003	4	1396.860	282.344	2501.006	687.835	2528.085	333.191	3743.276	600.927	--undefined--	--undefined--
1520	1.544	0.00003	4	1399.007	282.606	2510.793	311.275	2535.175	737.726	3745.197	623.376	--undefined--	--undefined--
1521	1.545	0.00003	4	1402.629	284.936	2498.446	280.712	2571.730	829.101	3744.845	665.984	--undefined--	--undefined--
1522	1.546	0.00003	4	1407.753	289.027	2490.614	252.395	2613.830	953.059	3740.524	729.483	--undefined--	--undefined--
1523	1.547	0.00003	5	109.350	1330.813	1414.070	293.996	2485.368	229.835	2666.057	1104.656	3729.598	811.438
1524	1.548	0.00003	5	163.396	1297.498	1420.623	298.701	2481.452	213.771	2729.727	1274.463	3709.604	903.871
1525	1.549	0.00003	5	195.167	1271.395	1425.803	302.335	2478.127	203.976	2798.189	1442.550	3681.671	992.502
1526	1.550	0.00003	5	208.646	1259.412	1427.964	304.451	2474.987	199.618	2853.718	1574.031	3655.533	1063.867
1527	1.551	0.00003	5	207.525	1261.417	1426.405	304.147	2471.831	199.346	2877.245	1623.666	3647.229	1120.138
1528	1.552	0.00003	5	202.701	1266.116	1422.017	299.916	2468.556	201.381	2869.100	1573.585	3664.584	1174.471
1529	1.553	0.00003	5	209.628	1259.006	1416.953	291.243	2465.148	203.514	2850.401	1464.016	3700.169	1234.053
1530	1.554	0.00003	5	233.648	1234.958	1413.353	279.871	2461.870	203.144	2844.156	1355.695	3739.915	1309.295
1531	1.555	0.00003	5	266.047	1200.268	1412.314	268.788	2459.416	197.958	2865.309	1287.375	3772.345	1423.169
1532	1.556	0.00003	5	297.309	1164.676	1413.976	260.407	2458.604	187.200	2927.589	1265.730	3788.221	1617.709
1533	1.557	0.00003	5	324.014	1133.741	1418.096	255.710	2459.727	172.232	3049.596	1238.366	3783.953	2000.344
1534	1.558	0.00003	5	347.535	1105.894	1424.339	254.347	2462.297	155.705	3189.460	1076.357	3851.384	2801.961
1535	1.559	0.00003	5	370.392	1075.022	1432.193	255.470	2465.299	140.238	3270.332	878.967	4317.761	4222.342
1536	1.560	0.00003	4	392.509	1039.157	1440.896	259.276	2467.504	127.532	3319.545	732.480	--undefined--	--undefined--
1537	1.561	0.00003	4	410.962	1008.935	1449.816	268.161	2467.772	118.156	3353.519	633.736	--undefined--	--undefined--
1538	1.562	0.00003	4	423.642	1004.268	1458.874	285.850	2465.613	111.769	3377.597	574.483	--undefined--	--undefined--
1539	1.563	0.00003	4	430.860	1043.913	1468.252	314.890	2461.741	107.605	3394.939	547.207	--undefined--	--undefined--
1540	1.564	0.00003	4	433.689	1130.543	1476.801	350.561	2458.040	105.183	3407.228	543.869	--undefined--	--undefined--
1541	1.565	0.00003	4	434.439	1314.025	1485.752	399.799	2454.727	103.520	3420.280	558.434	--undefined--	--undefined--
1542	1.566	0.00003	4	445.953	1569.493	1490.880	442.458	2453.104	102.762	3432.499	581.448	--undefined--	--undefined--
1543	1.567	0.00003	4	480.055	1766.401	1492.015	473.148	2452.532	102.224	3445.884	606.071	--undefined--	--undefined--
1544	1.568	0.00003	4	443.631	1711.871	1490.330	485.507	2452.633	101.513	3458.900	624.322	--undefined--	--undefined--
1545	1.569	0.00002	4	433.675	1463.722	1487.415	481.691	2453.418	100.016	3474.163	635.493	--undefined--	--undefined--
1546	1.570	0.00002	4	446.456	1296.508	1485.705	466.883	2454.952	97.942	3485.861	633.081	--undefined--	--undefined--
1547	1.571	0.00002	4	455.774	1179.380	1485.267	448.415	2457.636	95.394	3493.953	620.364	--undefined--	--undefined--
1548	1.572	0.00002	4	460.735	1103.130	1485.671	432.736	2461.435	92.951	3497.916	604.319	--undefined--	--undefined--
1549	1.573	0.00002	4	464.654	1039.705	1486.978	419.107	2468.036	90.129	3498.567	586.468	--undefined--	--undefined--
1550	1.574	0.00002	4	468.980	1003.033	1489.358	414.273	2475.917	87.610	3495.086	576.452	--undefined--	--undefined--
1551	1.575	0.00002	4	476.484	983.156	1493.661	418.641	2484.726	84.946	3487.290	574.187	--undefined--	--undefined--
1552	1.576	0.00002	4	487.563	976.349	1499.874	431.342	2492.456	82.367	3476.284	578.117	--undefined--	--undefined--
1553	1.577	0.00002	4	506.944	976.278	1510.618	457.154	2500.133	79.417	3458.394	588.665	--undefined--	--undefined--
1554	1.578	0.00002	4	529.343	975.834	1523.272	488.813	2505.085	77.330	3437.974	602.798	--undefined--	--undefined--
1555	1.579	0.00002	4	552.234	966.394	1537.218	524.165	2508.130	76.175	3414.007	620.615	--undefined--	--undefined--
1556	1.580	0.00002	4	568.501	946.183	1548.893	555.296	2509.605	76.040	3389.068	639.538	--undefined--	--undefined--
1557	1.581	0.00002	4	577.134	908.792	1558.143	585.852	2510.329	77.002	3354.749	664.566	--undefined--	--undefined--
1558	1.582	0.00002	4	573.645	865.384	1559.234	602.294	2510.496	78.848	3318.707	687.865	--undefined--	--undefined--
1559	1.583	0.00002	4	561.886	815.011	1552.413	602.617	2510.568	81.444	3278.508	708.705	--undefined--	--undefined--
1560	1.584	0.00002	4	547.565	763.778	1540.977	585.572	2510.732	84.246	3239.520	722.688	--undefined--	--undefined--
1561	1.585	0.00002	4	530.136	696.924	1525.108	543.494	2511.101	87.777	3192.630	730.149	--undefined--	--undefined--
1562	1.586	0.00002	4	516.647	632.609	1512.482	490.418	2511.484	90.748	3152.672	727.338	--undefined--	--undefined--
1563	1.587	0.00002	4	506.609	567.524	1503.326	432.540	2511.704	93.158	3116.724	716.960	--undefined--	--undefined--
1564	1.588	0.00002	4	500.332	509.326	1497.597	382.021	2511.615	94.877	3085.552	702.616	--undefined--	--undefined--
1565	1.589	0.00002	4	495.466	442.849	1492.519	328.498	2511.047	96.828	3044.551	679.014	--undefined--	--undefined--
1566	1.590	0.00002	4	492.523	387.028	1488.209	287.235	2509.952	99.296	2998.469	647.329	--undefined--	--undefined--
1567	1.591	0.00002	4	490.197	337.409	1483.280	252.240	2507.894	103.147	2943.539	599.590	--undefined--	--undefined--
1568	1.592	0.00002	4	487.983	294.767	1477.435	221.539	2504.177	108.360	2886.074	533.081	--undefined--	--undefined--
1569	1.593	0.00002	4	485.646	259.908	1471.136	193.837	2498.462	113.191	2836.921	456.606	--undefined--	--undefined--
1570	1.594	0.000006	4	483.095	233.903	1465.364	169.414	2492.039	114.218	2804.324	388.986	--undefined--	--undefined--
1571	1.595	0.000006	4	480.257	217.462	1460.977	149.511	2487.896	109.447	2789.700	346.159	--undefined--	--undefined--
1572	1.596	0.000006	4	477.057	209.939	1458.239	134.827	2488.116	100.362	2790.615	332.710	--undefined--	--undefined--
1573	1.597	0.000006	4	473.525	209.009	1456.911	124.912	2492.280	89.407	2805.050	345.605	--undefined--	--undefined--
1574	1.598	0.000006	4	469.905	211.301	1456.607	118.759	2498.679	78.099	2832.813	380.067	--undefined--	--undefined--
1575	1.599	0.000006	4	466.630	213.398	1457.041	115.519	2505.770	67.279	2875.672	431.647	--undefined--	--undefined--
1576	1.600	0.000006	4	464.145	212.658	1458.058	114.725	2512.637	57.551	2937.183	494.916	--undefined--	--undefined--
1577	1.601	0.000006	4	462.664	207.659	1459.544	116.139	2518.876	49.410	3021.083	559.217	--undefined--	--undefined--
1578	1.602	0.000006	4	462.047	198.350	1461.295	119.589	2524.382	43.235	3126.113	604.699	--undefined--	--undefined--
1579	1.603	0.000006	4	461.895	186.006	1462.914	124.887	2529.213	39.227	3238.885	610.561	--undefined--	--undefined--
1580	1.604	0.000006	4	461.814	172.799	1463.763	131.598	2533.453	37.370	3337.459	577.720	--undefined--	--undefined--
1581	1.605	0.000006	4	461.596	160.945	1462.962	138.302	2537.059	37.448	3407.721	529.548	--undefined--	--undefined--
1582	1.606	0.000006	4	461.184	151.949	1459.550	141.991	2539.742	39.094	3448.724	487.042	--undefined--	--undefined--
1583	1.607	0.000003	4	460.548	146.470	1453.186	139.378	2541.006	41.837	3465.593	458.183	--undefined--	--undefined--
1584	1.608	0.000003	4	459.610	144.707	1444.866	130.036	2540.371	45.192	3464.225	442.312	--undefined--	--undefined--
1585	1.609	0.000003	4	458.201	146.811	1436.326	117.155	2537.635	48.717	3449.913	435.490	--undefined--	--undefined--
1586	1.610	0.000003	4	456.033	153.026	1428.793	104.595	2532.993	52.050	3427.427	433.425	--undefined--	--undefined--
1587	1.611	0.000003	4	452.740	163.712	1422.661	94.555	2526.980	54.940	3401.234	432.948	--undefined--	--undefined--
1588	1.612	0.000003	4	447.954	179.388	1417.893	87.648	2520.352	57.283	3375.307	432.768	--undefined--	--undefined--
1589	1.613	0.000002	4	441.305	200.669	1414.371	83.766	2514.048	59.115	3352.427	433.567	--undefined--	--undefined--
1590	1.614	0.000002	4	432.397	227.901	1412.009	82.653	2509.211	60.578	3333.340	437.496	--undefined--	--undefined--
1591	1.615	0.000002	4	420.904	260.283	1410.759	84.099	2507.090	61.841	3316.325	447.303	--undefined--	--undefined--
1592	1.616	0.000002	4	406.971	294.368	1410.568	87.884	2508.623	62.971	3297.651	465.198	--undefined--	--undefined--
1593	1.617	0.000002	4	391.897	322.772	1411.322	93.579	2513.766	63.803	3272.827	491.274	--undefined--	--undefined--
1594	1.618	0.000002	4	378.407	335.855	1412.780	100.446	2521.079	64.088	3237.881	521.726	--undefined--	--undefined--
1595	1.619	0.000001	4	369.250	328.020	1414.515	107.639	2528.202	63.894	3190.516	547.960	--undefined--	--undefined--
1596	1.620	0.000001	4	365.052	302.742	1415.895	114.511	2532.990	63.775	3131.973	558.647	--undefined--	--undefined--
1597	1.621	0.000001	4	364.399	269.355	1416.224	120.646	2534.324	64.367	3068.497	546.294	--undefined--	--undefined--
1598	1.622	0.000001	4	365.606	236.260	1415.038	125.807	2532.152	65.863	3009.043	513.553	--undefined--	--undefined--
1599	1.623	0.000001	4	367.624	207.980	1412.370	130.121	2527.171	67.841	2960.588	471.173	--undefined--	--undefined--
1600	1.624	0.0000010	4	369.930	185.965	1408.736	134.305	2520.551	69.532	2926.009	430.652	--undefined--	--undefined--
1601	1.625	0.0000009	4	372.249	170.127	1404.861	139.510	2513.688	70.325	2904.951	399.599	--undefined--	--undefined--
