frame	time(s)	intensity	nformants	F1(Hz)	B1(Hz)	F2(Hz)	B2(Hz)	F3(Hz)	B3(Hz)	F4(Hz)	B4(Hz)	F5(Hz)	B5(Hz)
1	0.025	0.005	5	933.078	216.858	1476.908	73.339	2960.081	370.443	4417.456	3780.491	4483.554	717.950
2	0.026	0.005	5	930.144	210.823	1475.403	72.578	2955.138	327.752	4385.486	4061.424	4498.571	650.497
3	0.027	0.005	5	927.391	205.724	1474.026	72.676	2953.087	295.801	4403.264	4274.143	4504.142	613.156
4	0.028	0.005	5	924.893	201.829	1472.882	73.647	2952.439	274.604	4494.710	593.825	4551.274	4471.804
5	0.029	0.005	5	922.605	199.348	1471.997	75.572	2951.456	263.168	4466.928	573.575	4972.075	4673.294
6	0.030	0.005	4	920.184	198.201	1471.247	78.552	2948.922	260.708	4429.032	535.005	--undefined--	--undefined--
7	0.031	0.005	4	917.156	198.042	1470.399	82.629	2943.962	266.385	4396.611	484.107	--undefined--	--undefined--
8	0.032	0.005	5	913.394	198.636	1469.299	87.758	2935.748	277.390	4376.252	440.600	5013.886	3768.696
9	0.033	0.005	5	909.185	200.142	1467.921	93.907	2924.230	288.169	4365.678	414.211	4656.722	3139.687
10	0.034	0.005	5	904.865	203.008	1466.208	101.140	2911.058	293.026	4361.151	404.083	4492.192	2630.181
11	0.035	0.005	5	900.531	207.667	1463.908	109.546	2898.954	289.896	4360.196	405.600	4411.867	2258.163
12	0.036	0.005	5	896.051	214.355	1460.571	119.048	2889.980	280.792	4361.607	413.897	4371.280	2005.028
13	0.037	0.005	5	891.207	223.086	1455.733	129.249	2884.773	269.173	4348.664	1847.868	4364.978	424.915
14	0.038	0.005	5	885.833	233.645	1449.231	139.403	2883.025	257.881	4333.819	1769.710	4370.212	435.599
15	0.039	0.005	5	879.945	245.562	1441.523	148.646	2884.155	248.801	4323.499	1762.448	4377.033	443.803
16	0.040	0.005	5	873.891	258.201	1433.825	156.534	2887.683	243.272	4320.409	1829.420	4384.607	447.939
17	0.041	0.005	5	868.494	271.130	1427.860	163.634	2893.409	242.361	4335.347	1990.901	4391.481	446.502
18	0.042	0.005	5	865.037	284.556	1425.368	171.629	2901.441	246.663	4396.068	437.632	4396.638	2296.575
19	0.043	0.005	5	865.044	299.251	1427.757	182.681	2911.987	255.899	4397.526	419.342	4600.235	2862.451
20	0.044	0.005	4	869.940	315.527	1436.143	198.278	2924.842	269.292	4396.318	391.425	--undefined--	--undefined--
21	0.045	0.005	4	880.568	331.687	1451.446	217.815	2939.157	287.436	4393.701	357.786	--undefined--	--undefined--
22	0.046	0.005	4	896.292	343.407	1473.835	237.427	2954.190	313.512	4390.639	325.630	--undefined--	--undefined--
23	0.047	0.005	4	914.077	346.176	1501.366	251.246	2969.787	350.743	4387.425	301.591	--undefined--	--undefined--
24	0.048	0.005	4	929.390	340.011	1529.768	256.256	2985.028	397.274	4384.143	288.713	--undefined--	--undefined--
25	0.049	0.005	4	939.045	329.871	1554.884	254.948	2996.355	442.953	4381.213	286.000	--undefined--	--undefined--
26	0.050	0.005	4	942.613	320.685	1574.844	251.839	2998.864	473.817	4379.612	289.819	--undefined--	--undefined--
27	0.051	0.005	4	941.644	314.066	1590.003	249.396	2991.078	482.737	4380.736	296.257	--undefined--	--undefined--
28	0.052	0.005	4	938.400	309.111	1601.753	247.468	2976.509	472.957	4385.846	302.633	--undefined--	--undefined--
29	0.053	0.005	4	934.855	304.441	1611.425	244.888	2960.106	451.571	4395.418	307.394	--undefined--	--undefined--
30	0.054	0.005	4	932.190	299.195	1619.767	240.774	2945.347	423.683	4408.917	309.858	--undefined--	--undefined--
31	0.055	0.005	4	930.684	293.097	1626.889	235.039	2933.971	391.773	4425.165	310.264	--undefined--	--undefined--
32	0.056	0.005	4	929.830	286.427	1632.454	228.528	2926.578	357.363	4442.875	309.330	--undefined--	--undefined--
33	0.057	0.005	4	928.661	280.068	1635.997	222.886	2922.958	322.350	4460.684	307.306	--undefined--	--undefined--
34	0.058	0.005	4	926.211	275.321	1637.218	220.091	2922.188	289.321	4476.754	303.445	--undefined--	--undefined--
35	0.059	0.003	4	921.891	273.357	1636.131	221.816	2922.925	260.957	4488.810	296.582	--undefined--	--undefined--
36	0.060	0.003	4	915.664	274.626	1633.082	228.915	2923.967	239.040	4495.127	286.379	--undefined--	--undefined--
37	0.061	0.003	4	908.034	278.606	1628.750	241.152	2924.685	223.851	4495.571	273.872	--undefined--	--undefined--
38	0.062	0.003	4	899.903	284.092	1624.131	257.266	2925.103	214.317	4491.457	260.817	--undefined--	--undefined--
39	0.063	0.003	4	892.255	289.752	1620.404	275.346	2925.735	208.608	4484.525	248.800	--undefined--	--undefined--
40	0.064	0.003	4	885.750	294.556	1618.557	293.374	2927.366	204.693	4476.155	238.938	--undefined--	--undefined--
41	0.065	0.003	4	880.434	297.890	1618.884	309.763	2930.832	200.749	4467.187	232.047	--undefined--	--undefined--
42	0.066	0.003	4	875.740	299.581	1620.642	323.861	2936.783	195.505	4458.064	228.782	--undefined--	--undefined--
43	0.067	0.003	4	870.763	299.884	1622.186	336.313	2945.443	188.484	4449.029	229.467	--undefined--	--undefined--
44	0.068	0.002	4	864.653	299.293	1621.534	348.882	2956.431	179.981	4440.294	233.735	--undefined--	--undefined--
45	0.069	0.002	4	856.924	298.189	1617.015	363.621	2968.792	170.691	4432.171	240.258	--undefined--	--undefined--
46	0.070	0.002	4	847.567	296.647	1607.680	381.931	2981.261	161.256	4425.140	246.960	--undefined--	--undefined--
47	0.071	0.002	4	836.974	294.599	1593.483	404.162	2992.622	152.038	4419.770	251.751	--undefined--	--undefined--
48	0.072	0.002	4	825.751	292.136	1575.393	429.874	3001.970	143.164	4416.479	253.413	--undefined--	--undefined--
49	0.073	0.002	4	814.577	289.590	1555.513	458.522	3008.836	134.677	4415.284	252.006	--undefined--	--undefined--
50	0.074	0.002	4	804.139	287.333	1537.202	490.178	3013.215	126.663	4415.749	248.547	--undefined--	--undefined--
51	0.075	0.002	4	795.083	285.411	1525.077	525.619	3015.536	119.331	4417.166	244.345	--undefined--	--undefined--
52	0.076	0.002	4	787.831	283.212	1524.777	564.783	3016.531	113.026	4418.802	240.563	--undefined--	--undefined--
53	0.077	0.002	4	782.183	279.512	1541.743	603.005	3017.010	108.150	4420.009	238.315	--undefined--	--undefined--
54	0.078	0.002	4	776.992	273.331	1577.386	628.142	3017.606	105.030	4420.159	239.131	--undefined--	--undefined--
55	0.079	0.002	4	770.538	265.066	1624.277	627.802	3018.619	103.925	4418.489	245.365	--undefined--	--undefined--
56	0.080	0.002	4	761.489	256.211	1669.092	604.423	3020.067	105.228	4414.020	260.093	--undefined--	--undefined--
57	0.081	0.002	4	749.460	247.719	1702.387	574.178	3021.860	109.572	4405.619	286.442	--undefined--	--undefined--
58	0.082	0.002	4	734.968	239.129	1721.749	551.644	3023.903	117.594	4392.313	326.271	--undefined--	--undefined--
59	0.083	0.002	4	719.314	229.319	1728.635	542.058	3026.071	129.475	4373.993	378.253	--undefined--	--undefined--
60	0.084	0.002	4	704.178	217.926	1726.077	542.921	3028.230	144.606	4352.347	436.702	--undefined--	--undefined--
61	0.085	0.002	4	690.847	205.735	1718.252	548.477	3030.460	161.724	4331.025	493.540	--undefined--	--undefined--
62	0.086	0.001	4	679.756	193.755	1709.942	553.018	3033.340	179.610	4314.047	542.431	--undefined--	--undefined--
63	0.087	0.001	4	670.660	182.393	1705.442	551.158	3037.997	197.780	4303.656	580.422	--undefined--	--undefined--
64	0.088	0.001	4	663.026	171.478	1707.470	537.397	3045.850	216.550	4299.731	606.646	--undefined--	--undefined--
65	0.089	0.001	4	656.364	160.784	1716.256	508.286	3058.178	236.368	4300.679	621.987	--undefined--	--undefined--
66	0.090	0.001	4	650.397	150.402	1729.493	465.730	3075.658	257.010	4304.819	630.307	--undefined--	--undefined--
67	0.091	0.001	4	645.040	140.626	1743.823	416.728	3097.964	277.350	4311.795	638.400	--undefined--	--undefined--
68	0.092	0.001	4	640.272	131.590	1756.642	369.300	3123.523	295.983	4323.565	654.207	--undefined--	--undefined--
69	0.093	0.001	4	636.059	123.162	1766.798	329.079	3149.703	312.336	4345.058	684.943	--undefined--	--undefined--
70	0.094	0.001	4	632.358	115.123	1774.346	298.652	3173.665	327.212	4385.418	733.363	--undefined--	--undefined--
71	0.095	0.001	5	629.170	107.419	1780.081	278.287	3193.446	341.786	4458.703	781.848	5021.155	3766.191
72	0.096	0.001	5	626.541	100.237	1785.133	266.805	3208.335	355.799	4358.991	3522.393	4562.905	763.561
73	0.097	0.001	5	624.513	93.868	1790.614	262.259	3218.192	366.783	3933.969	3361.367	4649.660	659.410
74	0.098	0.001	5	623.059	88.528	1797.361	262.345	3222.446	371.340	3644.638	3299.058	4701.953	542.123
75	0.099	0.001	5	622.082	84.280	1805.756	264.481	3220.015	367.472	3440.935	3349.454	4732.170	443.118
76	0.100	0.001	5	621.448	81.074	1815.613	265.753	3210.451	355.447	3294.634	3541.697	4749.369	365.044
77	0.101	0.001	5	621.042	78.820	1826.127	263.166	3192.234	3932.871	3195.030	336.732	4758.323	304.564
78	0.102	0.001	5	620.778	77.427	1835.946	254.513	3132.227	4664.447	3176.785	313.280	4761.705	257.966
79	0.103	0.001	5	620.588	76.792	1843.591	239.530	3159.016	6310.205	3159.585	287.762	4761.203	222.267
80	0.104	0.001	4	620.396	76.802	1848.152	220.174	3146.832	263.292	4758.019	195.275	--undefined--	--undefined--
81	0.105	0.001	4	620.118	77.355	1849.729	199.450	3140.456	242.318	4753.084	175.367	--undefined--	--undefined--
82	0.106	0.001	4	619.682	78.409	1849.210	179.890	3140.599	225.813	4747.150	161.274	--undefined--	--undefined--
83	0.107	0.001	4	619.051	79.992	1847.692	162.893	3145.899	213.469	4740.820	151.989	--undefined--	--undefined--
84	0.108	0.001	4	618.202	82.157	1846.026	148.945	3154.114	204.444	4734.552	146.755	--undefined--	--undefined--
85	0.109	0.001	4	617.081	84.942	1844.644	138.042	3162.796	198.007	4728.671	145.074	--undefined--	--undefined--
86	0.110	0.001	4	615.568	88.347	1843.593	129.997	3169.816	193.771	4723.369	146.620	--undefined--	--undefined--
87	0.111	0.001	4	613.470	92.352	1842.656	124.619	3173.622	191.639	4718.736	151.092	--undefined--	--undefined--
88	0.112	0.001	4	610.535	96.915	1841.511	121.816	3173.317	191.653	4714.803	158.019	--undefined--	--undefined--
89	0.113	0.0008	4	606.493	101.940	1839.875	121.608	3168.700	193.826	4711.588	166.614	--undefined--	--undefined--
90	0.114	0.0008	4	601.128	107.229	1837.589	124.032	3160.359	197.962	4709.108	175.739	--undefined--	--undefined--
91	0.115	0.0008	4	594.354	112.443	1834.623	128.976	3149.697	203.541	4707.315	184.098	--undefined--	--undefined--
92	0.116	0.0008	4	586.267	117.149	1831.029	136.025	3138.693	209.756	4705.972	190.624	--undefined--	--undefined--
93	0.117	0.0008	4	577.141	120.949	1826.886	144.371	3129.310	215.666	4704.561	194.962	--undefined--	--undefined--
94	0.118	0.0008	4	567.371	123.619	1822.288	152.776	3122.775	220.348	4702.359	197.763	--undefined--	--undefined--
95	0.119	0.0008	4	557.399	125.189	1817.381	159.692	3119.151	223.083	4698.672	200.581	--undefined--	--undefined--
96	0.120	0.0008	5	547.615	125.909	1812.413	163.688	2426.881	6809.410	3117.506	223.646	4693.092	205.331
97	0.121	0.0008	5	538.280	126.095	1807.677	164.105	2593.091	5604.362	3116.603	222.491	4685.579	213.643
98	0.122	0.0008	5	529.483	125.955	1803.368	161.443	2709.598	5264.684	3115.622	220.576	4676.401	226.450
99	0.123	0.0008	5	521.170	125.533	1799.493	157.081	2842.779	5251.621	3114.417	218.962	4666.007	244.050
100	0.124	0.0008	5	513.214	124.784	1795.932	152.495	3007.251	5386.508	3113.246	218.440	4654.848	266.647
101	0.125	0.0008	5	505.498	123.698	1792.553	148.628	3112.339	219.222	3208.357	5578.824	4643.091	295.143
102	0.126	0.0008	5	497.956	122.349	1789.268	145.702	3111.617	220.775	3465.157	5831.373	4630.205	331.764
103	0.127	0.0008	5	490.567	120.846	1786.017	143.386	3110.622	221.964	3881.356	6289.970	4614.397	380.181
104	0.128	0.0008	4	483.332	119.266	1782.741	141.083	3108.630	221.498	4591.698	444.561	--undefined--	--undefined--
105	0.129	0.0008	4	476.256	117.616	1779.383	138.188	3104.871	218.469	4554.437	525.062	--undefined--	--undefined--
106	0.130	0.0008	4	469.343	115.850	1775.924	134.274	3098.762	212.698	4492.547	602.839	--undefined--	--undefined--
107	0.131	0.0008	4	462.598	113.904	1772.447	129.217	3090.035	204.734	4411.523	632.772	--undefined--	--undefined--
108	0.132	0.0008	4	456.030	111.704	1769.124	123.242	3078.714	195.587	4339.540	604.934	--undefined--	--undefined--
109	0.133	0.0007	4	449.642	109.140	1766.121	116.905	3064.993	186.346	4291.592	553.149	--undefined--	--undefined--
110	0.134	0.0005	4	443.427	106.048	1763.480	110.956	3049.099	177.755	4267.319	501.989	--undefined--	--undefined--
111	0.135	0.0005	4	437.381	102.281	1761.091	106.111	3031.269	169.859	4263.187	460.243	--undefined--	--undefined--
112	0.136	0.0005	4	431.527	97.842	1758.785	102.868	3011.927	161.959	4275.692	427.982	--undefined--	--undefined--
113	0.137	0.0005	4	425.923	92.954	1756.443	101.466	2991.922	153.161	4301.186	400.620	--undefined--	--undefined--
114	0.138	0.0005	4	420.630	88.010	1754.074	102.011	2972.426	143.208	4334.837	371.626	--undefined--	--undefined--
115	0.139	0.0005	4	415.688	83.431	1751.793	104.615	2954.381	132.779	4370.016	337.060	--undefined--	--undefined--
116	0.140	0.0005	5	411.107	79.550	1749.762	109.466	2938.014	122.911	4400.592	300.035	4573.923	4531.311
117	0.141	0.0005	5	406.893	76.539	1748.098	116.788	2922.885	114.273	4018.249	3753.126	4424.279	267.188
118	0.142	0.0005	5	403.061	74.399	1746.801	126.751	2908.310	106.889	3792.102	3288.390	4441.884	242.026
119	0.143	0.0005	5	399.639	73.019	1745.721	139.304	2893.792	100.245	3660.820	2978.547	4454.759	224.323
120	0.144	0.0005	5	396.657	72.254	1744.602	153.982	2879.344	93.572	3566.422	2759.239	4463.754	212.495
121	0.145	0.0005	5	394.112	71.980	1743.204	169.810	2865.583	86.293	3484.980	2597.458	4469.260	205.117
122	0.146	0.0005	5	391.942	72.089	1741.434	185.459	2853.476	78.441	3405.059	2470.945	4471.464	201.368
123	0.147	0.0005	5	390.009	72.450	1739.392	199.668	2843.777	70.672	3322.722	2361.698	4470.526	201.019
124	0.148	0.0005	5	388.132	72.914	1737.336	211.645	2836.628	63.765	3240.544	2259.757	4466.668	204.328
125	0.149	0.0005	5	386.137	73.393	1735.688	221.231	2831.612	58.122	3165.372	2169.649	4460.349	211.871
126	0.150	0.0005	5	383.915	73.954	1735.056	228.833	2828.070	53.691	3103.851	2108.875	4452.520	224.159
127	0.151	0.0004	5	381.456	74.796	1736.133	235.272	2825.394	50.228	3058.669	2098.424	4444.648	241.003
128	0.152	0.0004	5	378.839	76.157	1739.507	241.546	2823.152	47.592	3027.433	2154.799	4438.133	260.891
129	0.153	0.0004	5	376.216	78.236	1745.654	248.587	2821.101	45.862	3003.407	2289.266	4433.400	280.967
130	0.154	0.0004	5	373.777	81.215	1755.175	257.040	2819.119	45.324	2977.042	2512.051	4429.559	298.036
131	0.155	0.0004	5	371.714	85.258	1768.955	267.000	2817.125	46.444	2937.571	2835.951	4425.055	310.021
132	0.156	0.0004	5	370.175	90.421	1787.898	277.785	2815.026	49.924	2874.098	3277.274	4418.551	316.730
133	0.157	0.0004	5	369.223	96.519	1812.276	288.020	2775.836	3861.518	2812.696	56.786	4409.274	319.536
134	0.158	0.0004	5	368.826	103.109	1841.126	296.172	2627.963	4657.346	2809.936	68.413	4396.970	320.301
135	0.159	0.0004	5	368.878	109.640	1872.079	301.375	2375.057	5931.389	2806.437	86.527	4382.070	320.309
136	0.160	0.0004	4	369.209	115.625	1901.729	304.302	2801.700	113.101	4365.986	319.923	--undefined--	--undefined--
137	0.161	0.0004	4	369.578	120.687	1926.421	307.546	2794.943	150.258	4350.856	319.136	--undefined--	--undefined--
138	0.162	0.0004	4	369.660	124.508	1943.078	314.796	2784.912	200.113	4338.574	318.382	--undefined--	--undefined--
139	0.163	0.0004	4	369.140	126.856	1949.755	328.978	2769.636	264.049	4329.654	318.929	--undefined--	--undefined--
140	0.164	0.0004	4	367.892	127.764	1946.029	350.187	2746.444	340.644	4322.717	322.592	--undefined--	--undefined--
141	0.165	0.0004	4	366.062	127.699	1933.564	374.518	2713.194	422.781	4314.896	330.913	--undefined--	--undefined--
142	0.166	0.0004	4	363.913	127.470	1916.659	395.829	2671.213	498.515	4302.943	343.699	--undefined--	--undefined--
143	0.167	0.0004	4	361.606	127.868	1901.389	410.818	2626.704	560.547	4284.890	357.440	--undefined--	--undefined--
144	0.168	0.0004	4	359.135	129.434	1892.712	421.713	2586.179	613.717	4261.918	366.627	--undefined--	--undefined--
145	0.169	0.0004	4	356.392	132.523	1892.422	432.995	2551.965	668.071	4238.018	369.218	--undefined--	--undefined--
146	0.170	0.0004	4	353.240	137.456	1899.506	447.756	2523.090	729.760	4216.530	368.465	--undefined--	--undefined--
147	0.171	0.0004	4	349.506	144.505	1911.258	467.794	2496.925	798.705	4198.162	368.216	--undefined--	--undefined--
148	0.172	0.0004	4	344.944	153.734	1924.296	495.964	2468.906	868.938	4181.770	369.267	--undefined--	--undefined--
149	0.173	0.0004	4	339.228	164.816	1935.653	538.259	2431.916	928.294	4165.543	368.734	--undefined--	--undefined--
150	0.174	0.0004	4	332.012	177.005	1943.144	605.188	2378.264	955.272	4148.011	360.740	--undefined--	--undefined--
151	0.175	0.0004	4	323.060	189.297	1941.444	715.685	2308.917	912.157	4129.161	338.946	--undefined--	--undefined--
152	0.176	0.0004	4	312.340	200.655	1902.158	874.322	2259.325	774.856	4110.920	301.465	--undefined--	--undefined--
153	0.177	0.0003	4	300.080	210.046	1817.881	976.015	2252.050	646.126	4095.854	254.056	--undefined--	--undefined--
154	0.178	0.0002	4	286.820	216.228	1733.564	1001.347	2253.359	560.356	4085.228	206.585	--undefined--	--undefined--
155	0.179	0.0002	4	273.497	217.653	1661.735	982.479	2254.568	500.548	4078.676	166.589	--undefined--	--undefined--
156	0.180	0.0002	4	261.371	212.938	1602.827	936.903	2256.021	459.120	4075.163	136.804	--undefined--	--undefined--
157	0.181	0.0002	4	251.605	201.760	1555.441	876.293	2258.869	432.644	4073.787	116.637	--undefined--	--undefined--
158	0.182	0.0002	5	244.712	185.352	1517.400	810.869	2263.805	418.191	4074.021	104.272	5393.286	1832.660
159	0.183	0.0002	5	240.401	166.034	1486.007	748.550	2270.938	411.862	4075.618	97.879	4960.886	1517.456
160	0.184	0.0002	5	237.931	146.224	1458.679	694.062	2279.854	408.500	4078.440	95.968	4783.477	1260.628
161	0.185	0.0002	5	236.569	127.766	1433.478	649.626	2289.712	402.530	4082.301	97.326	4664.984	1049.837
162	0.186	0.0002	5	235.815	111.814	1409.330	616.223	2299.481	389.944	4086.901	100.789	4579.234	878.621
163	0.187	0.0002	5	235.410	98.988	1385.930	594.418	2308.305	370.329	4091.861	105.065	4517.436	744.044
164	0.188	0.0002	5	235.253	89.528	1363.377	584.328	2315.758	347.039	4096.771	108.800	4475.079	643.809
165	0.189	0.0002	5	235.309	83.365	1341.796	584.905	2321.855	325.055	4101.155	111.007	4448.271	573.894
166	0.190	0.0002	5	235.551	80.173	1321.238	593.140	2326.912	308.502	4104.400	111.533	4432.912	527.972
167	0.191	0.0002	5	235.937	79.423	1301.873	604.134	2331.429	299.611	4105.902	111.014	4425.030	498.827
168	0.192	0.0002	5	236.416	80.453	1284.125	612.397	2336.069	298.969	4105.389	110.323	4421.379	480.491
169	0.193	0.0002	5	236.938	82.524	1268.497	613.580	2341.657	306.028	4103.127	110.103	4419.758	469.381
170	0.194	0.0002	5	237.460	84.904	1255.222	605.355	2349.193	319.363	4099.817	110.724	4418.843	463.852
171	0.195	0.0002	5	237.952	86.944	1244.062	587.151	2359.760	336.600	4096.318	112.491	4417.699	462.930
172	0.196	0.0002	5	238.395	88.154	1234.362	559.610	2374.239	354.236	4093.383	115.826	4415.341	465.142
173	0.197	0.0002	5	238.780	88.265	1225.303	524.533	2392.767	367.735	4091.495	121.322	4410.515	467.890
174	0.198	0.0002	5	239.109	87.282	1216.234	485.005	2414.199	372.450	4090.816	129.771	4401.742	467.380
175	0.199	0.0002	5	239.391	85.457	1206.913	444.901	2436.123	365.400	4091.216	142.277	4387.572	458.980
176	0.200	0.0002	5	239.640	83.183	1197.477	407.662	2455.782	346.795	4092.284	160.546	4367.100	437.842
177	0.201	0.0002	5	239.867	80.813	1188.191	375.192	2471.372	319.876	4093.140	187.389	4340.884	399.440
178	0.202	0.0002	5	240.075	78.551	1179.226	347.716	2482.712	289.167	4091.383	226.771	4312.620	340.321
179	0.203	0.0002	5	240.267	76.482	1170.648	324.523	2490.907	258.680	4081.129	277.432	4291.126	264.750
180	0.204	0.0002	5	240.443	74.686	1162.532	304.919	2497.587	231.164	4060.626	321.243	4281.903	195.771
181	0.205	0.0002	5	240.608	73.311	1155.042	288.664	2504.291	208.125	4039.052	349.835	4279.055	147.140
182	0.206	0.0002	5	240.774	72.535	1148.422	275.760	2512.183	190.053	4022.461	370.970	4278.374	115.237
183	0.207	0.0002	5	240.952	72.458	1142.913	265.954	2521.978	176.627	4012.148	391.696	4278.735	94.739
184	0.208	0.0002	5	241.150	73.023	1138.649	258.435	2533.919	166.942	4007.243	414.803	4279.812	81.740
185	0.209	0.0002	5	241.367	74.009	1135.596	251.945	2547.753	159.817	4005.842	439.236	4281.493	73.591
186	0.210	0.0002	5	241.596	75.113	1133.563	245.186	2562.759	154.140	4005.688	461.494	4283.759	68.594
187	0.211	0.0002	5	241.827	76.047	1132.298	237.298	2577.907	149.169	4004.801	477.871	4286.606	65.712
188	0.212	0.0002	5	242.052	76.629	1131.613	228.122	2592.137	144.658	4001.978	486.710	4289.955	64.315
189	0.213	0.0002	5	242.263	76.820	1131.469	218.165	2604.623	140.770	3996.923	489.244	4293.625	64.029
190	0.214	0.0002	5	242.451	76.719	1131.979	208.356	2614.892	137.875	3990.050	488.597	4297.375	64.733
191	0.215	0.0002	5	242.607	76.526	1133.360	199.764	2622.810	136.332	3982.150	487.888	4301.007	66.602
192	0.216	0.0002	5	242.725	76.488	1135.879	193.371	2628.516	136.318	3974.195	488.586	4304.486	70.119
193	0.217	0.0002	5	242.804	76.814	1139.797	189.884	2632.386	137.701	3967.263	489.555	4308.079	76.014
194	0.218	0.0002	5	242.845	77.579	1145.311	189.581	2635.014	139.952	3962.347	487.162	4312.482	85.030
195	0.219	0.0002	5	242.852	78.651	1152.493	192.216	2637.162	142.211	3959.746	477.066	4318.855	97.235
196	0.220	0.0002	5	242.826	79.705	1161.242	197.073	2639.613	143.570	3958.441	457.679	4328.385	110.839
197	0.221	0.0002	5	242.763	80.362	1171.264	203.214	2642.980	143.465	3956.759	432.864	4341.108	121.810
198	0.222	0.0002	5	242.648	80.360	1182.105	209.798	2647.558	141.889	3954.128	410.137	4355.039	126.380
199	0.223	0.0002	5	242.465	79.653	1193.179	216.239	2653.269	139.271	3951.441	395.842	4367.301	124.156
200	0.224	0.0002	5	242.200	78.388	1203.823	222.185	2659.724	136.207	3949.782	393.178	4375.966	117.509
201	0.225	0.0002	5	241.853	76.845	1213.373	227.469	2666.392	133.283	3949.625	403.531	4380.461	109.032
202	0.226	0.0002	5	241.445	75.371	1221.265	232.072	2672.799	131.006	3950.812	427.949	4381.031	100.299
203	0.227	0.0002	5	241.007	74.295	1227.135	236.039	2678.695	129.739	3952.653	467.480	4378.321	91.892
204	0.228	0.0002	5	240.578	73.846	1230.861	239.341	2684.150	129.598	3953.933	522.384	4373.258	83.832
205	0.229	0.0002	5	240.186	74.083	1232.538	241.747	2689.536	130.331	3953.091	590.425	4366.996	76.104
206	0.230	0.0002	5	239.845	74.860	1232.389	242.771	2695.374	131.225	3948.825	664.958	4360.737	69.085
207	0.231	0.0002	5	239.552	75.836	1230.672	241.773	2702.038	131.206	3941.031	734.675	4355.439	63.538
208	0.232	0.0002	5	239.295	76.585	1227.655	238.301	2709.492	129.221	3931.284	786.853	4351.708	60.153
209	0.233	0.0002	5	239.063	76.788	1223.660	232.531	2717.277	124.826	3922.044	813.067	4349.913	59.124
210	0.234	0.0002	5	238.849	76.378	1219.109	225.414	2724.745	118.514	3914.912	812.999	4350.267	60.000
211	0.235	0.0002	5	238.655	75.541	1214.465	218.336	2731.354	111.496	3909.532	793.417	4352.678	61.731
212	0.236	0.0002	5	238.485	74.576	1210.148	212.564	2736.806	105.104	3904.311	764.008	4356.498	62.982
213	0.237	0.0002	5	238.337	73.728	1206.457	208.837	2741.038	100.301	3898.002	733.038	4360.565	62.795
214	0.238	0.0002	5	238.202	73.084	1203.539	207.214	2744.131	97.509	3890.488	704.710	4363.716	61.098
215	0.239	0.0002	5	238.064	72.544	1201.388	207.162	2746.238	96.698	3882.532	679.043	4365.329	58.538
216	0.240	0.0002	5	237.898	71.893	1199.892	207.814	2747.543	97.563	3875.317	653.693	4365.439	55.938
217	0.241	0.0002	5	237.682	70.902	1198.902	208.315	2748.260	99.693	3870.170	626.176	4364.494	53.940
218	0.242	0.0002	5	237.404	69.434	1198.297	208.121	2748.633	102.707	3868.298	595.367	4363.078	52.941
219	0.243	0.0002	5	237.065	67.482	1198.012	207.139	2748.913	106.334	3870.420	561.877	4361.747	53.147
220	0.244	0.0002	5	236.681	65.152	1198.026	205.661	2749.304	110.422	3876.474	527.553	4360.944	54.619
221	0.245	0.0002	5	236.275	62.603	1198.321	204.179	2749.903	114.894	3885.631	494.632	4360.930	57.296
222	0.246	0.0002	5	235.875	59.990	1198.872	203.200	2750.670	119.675	3896.638	465.086	4361.743	61.016
223	0.247	0.0002	5	235.499	57.437	1199.647	203.143	2751.451	124.675	3908.296	440.346	4363.173	65.560
224	0.248	0.0002	5	235.164	55.027	1200.628	204.298	2752.060	129.831	3919.820	421.303	4364.775	70.720
225	0.249	0.0002	5	234.875	52.803	1201.816	206.818	2752.385	135.169	3930.950	408.425	4365.940	76.368
226	0.250	0.0002	5	234.634	50.772	1203.239	210.703	2752.442	140.826	3941.813	401.901	4366.000	82.490
227	0.251	0.0002	5	234.440	48.921	1204.948	215.824	2752.352	147.005	3952.640	401.820	4364.349	89.138
228	0.252	0.0002	5	234.293	47.238	1207.029	221.997	2752.244	153.892	3963.453	408.398	4360.542	96.328
229	0.253	0.0002	5	234.195	45.747	1209.587	229.110	2752.136	161.591	3973.875	422.199	4354.345	103.865
230	0.254	0.0002	5	234.153	44.511	1212.717	237.222	2751.879	170.081	3983.102	444.143	4345.781	111.166
231	0.255	0.0002	5	234.174	43.617	1216.415	246.531	2751.177	179.200	3989.967	474.988	4335.248	117.149
232	0.256	0.0002	5	234.266	43.134	1220.482	257.172	2749.688	188.661	3993.031	513.906	4323.760	120.438
233	0.257	0.0002	5	234.431	43.066	1224.476	268.932	2747.091	198.090	3990.856	556.254	4313.099	120.094
234	0.258	0.0002	5	234.667	43.335	1227.773	281.107	2743.064	207.088	3982.816	592.324	4305.443	116.361
235	0.259	0.0002	5	234.968	43.812	1229.792	292.757	2737.258	215.328	3970.089	610.417	4302.477	110.335
236	0.260	0.0002	5	235.333	44.392	1230.298	303.389	2729.417	222.724	3955.645	604.312	4304.563	102.930
237	0.261	0.0002	5	235.766	45.065	1229.567	313.594	2719.550	229.658	3942.699	578.126	4310.508	94.629
238	0.262	0.0002	5	236.275	45.893	1228.242	324.928	2707.874	236.981	3932.987	542.516	4318.211	86.044
239	0.263	0.0002	5	236.865	46.936	1226.986	339.158	2694.625	245.646	3926.435	507.184	4325.781	78.056
240	0.264	0.0002	5	237.533	48.193	1226.233	357.598	2680.035	256.285	3922.058	477.385	4332.136	71.436
241	0.265	0.0002	5	238.265	49.603	1226.101	380.898	2664.447	269.057	3918.897	454.632	4336.891	66.613
242	0.266	0.0002	5	239.044	51.074	1226.446	409.144	2648.396	283.740	3916.432	438.513	4340.015	63.754
243	0.267	0.0002	5	239.853	52.522	1226.962	442.101	2632.579	299.905	3914.558	428.111	4341.589	62.913
244	0.268	0.0002	5	240.684	53.893	1227.300	479.465	2617.767	317.076	3913.370	422.863	4341.704	64.128
245	0.269	0.0002	5	241.538	55.170	1227.162	521.078	2604.720	334.831	3912.928	422.962	4340.451	67.415
246	0.270	0.0002	5	242.422	56.357	1226.359	567.035	2594.137	352.854	3913.124	429.422	4337.961	72.693
247	0.271	0.0002	5	243.349	57.475	1224.834	617.634	2586.652	370.945	3913.661	443.881	4334.470	79.633
248	0.272	0.0002	5	244.331	58.539	1222.643	673.179	2582.870	388.990	3914.064	468.334	4330.395	87.441
249	0.273	0.0002	5	245.378	59.557	1219.949	733.705	2583.444	406.946	3913.592	504.965	4326.329	94.700
250	0.274	0.0002	5	246.496	60.538	1217.056	798.817	2589.173	424.888	3911.093	556.245	4322.891	99.525
251	0.275	0.0002	5	247.689	61.494	1214.514	867.786	2601.057	443.050	3905.014	625.161	4320.420	100.272
252	0.276	0.0002	5	248.958	62.429	1213.226	939.535	2620.138	461.543	3893.788	714.753	4318.765	96.495
253	0.277	0.0002	5	250.291	63.294	1214.548	1011.703	2646.873	479.569	3876.501	825.998	4317.431	89.334
254	0.278	0.0002	5	251.658	63.927	1220.759	1078.700	2680.021	495.182	3853.374	954.930	4315.948	80.845
255	0.279	0.0002	5	253.007	64.030	1236.718	1129.902	2715.843	507.857	3825.107	1093.124	4314.118	72.854
256	0.280	0.0002	5	254.281	63.236	1272.213	1148.641	2749.483	523.626	3790.152	1235.936	4312.052	66.249
257	0.281	0.0002	5	255.493	61.418	1339.056	1111.849	2779.046	555.547	3742.184	1392.619	4310.095	61.111
258	0.282	0.0002	5	256.836	59.364	1434.389	999.834	2808.341	611.508	3673.281	1577.469	4308.780	57.327
259	0.283	0.0002	5	258.675	58.996	1528.001	829.853	2840.489	678.097	3581.423	1775.833	4308.743	54.973
260	0.284	0.0002	5	261.368	62.272	1591.290	664.075	2866.873	739.168	3467.830	1925.637	4310.470	54.115
261	0.285	0.0002	5	265.155	70.084	1624.114	546.988	2879.907	809.516	3328.104	1956.690	4314.135	54.624
262	0.286	0.0002	5	270.110	81.951	1637.861	480.143	2888.819	923.207	3160.820	1827.373	4319.654	56.343
263	0.287	0.0002	5	276.096	96.061	1640.974	449.369	2909.165	1469.572	2976.746	1173.340	4326.758	59.273
264	0.288	0.0002	5	282.787	109.873	1638.243	441.673	2641.178	1491.537	3101.511	999.579	4335.010	63.581
265	0.289	0.0002	5	289.767	121.257	1632.759	448.167	2500.645	1462.067	3132.013	886.461	4343.830	69.379
266	0.290	0.0002	5	296.631	129.332	1627.053	463.748	2410.211	1437.538	3144.622	817.866	4352.573	76.338
267	0.291	0.0002	5	303.091	134.409	1623.303	486.736	2350.243	1451.180	3150.093	782.667	4360.672	83.387
268	0.292	0.0002	5	309.029	137.448	1623.250	518.146	2305.630	1522.075	3151.936	772.933	4367.785	88.815
269	0.293	0.0002	5	314.519	139.656	1628.426	560.446	2262.180	1667.636	3152.006	781.754	4373.817	90.984
270	0.294	0.0002	5	319.783	142.269	1640.299	616.276	2203.248	1908.448	3153.593	804.067	4378.818	89.329
271	0.295	0.0002	5	325.107	146.306	1659.229	689.189	2106.435	2252.849	3164.486	839.995	4382.871	84.805
272	0.296	0.0002	5	330.680	152.195	1683.209	794.060	1947.185	2620.635	3199.617	898.813	4386.140	79.333
273	0.297	0.0002	5	336.340	159.488	1716.481	989.172	1730.349	2668.114	3284.661	988.112	4388.988	74.913
274	0.298	0.0002	5	341.343	167.075	1395.658	1956.442	1904.704	1371.562	3449.429	1052.636	4391.989	73.052
275	0.299	0.0002	5	344.490	173.680	1066.670	1477.519	2153.853	1241.591	3653.698	971.993	4395.759	74.312
276	0.300	0.0002	5	344.737	177.656	919.370	1114.701	2278.867	1121.275	3808.567	797.922	4400.416	77.765
277	0.301	0.0002	5	342.226	176.794	850.429	851.552	2379.893	1091.414	3897.360	651.044	4404.760	81.420
278	0.302	0.0002	5	338.835	170.399	819.876	673.033	2488.837	1112.080	3938.972	572.791	4406.752	84.283
279	0.303	0.0002	5	336.802	161.174	807.975	558.545	2606.498	1124.577	3952.755	554.172	4405.750	86.741
280	0.304	0.0002	5	337.109	152.785	804.814	489.436	2716.251	1095.413	3952.353	571.636	4403.108	88.979
281	0.305	0.0002	5	339.524	146.979	805.772	450.141	2804.938	1033.724	3945.897	602.990	4400.748	90.842
282	0.306	0.0002	5	343.328	143.774	808.453	429.375	2870.949	962.910	3937.520	632.828	4400.010	92.357
283	0.307	0.0002	5	347.737	142.717	811.473	420.636	2918.743	899.505	3928.934	654.443	4401.291	93.731
284	0.308	0.0002	5	352.007	143.444	814.084	420.715	2953.826	851.027	3920.722	668.884	4404.156	95.218
285	0.309	0.0002	5	355.475	145.643	816.003	427.675	2980.718	818.730	3913.400	681.035	4407.710	97.102
286	0.310	0.0002	5	357.659	148.893	817.316	439.414	3002.442	799.938	3908.005	695.516	4411.009	99.678
287	0.311	0.0002	5	358.340	152.586	818.431	453.089	3020.673	789.639	3906.100	714.671	4413.316	103.154
288	0.312	0.0002	5	357.582	156.008	819.958	465.276	3036.053	781.872	3909.375	738.412	4414.199	107.542
289	0.313	0.0002	5	355.695	158.561	822.463	472.734	3048.559	771.402	3918.941	764.864	4413.528	112.588
290	0.314	0.0002	5	353.177	160.021	826.194	473.488	3058.001	755.478	3934.526	791.448	4411.437	117.776
291	0.315	0.0002	5	350.653	160.685	830.961	467.687	3064.539	734.821	3953.979	816.444	4408.251	122.361
292	0.316	0.0002	5	348.790	161.339	836.286	457.697	3068.889	713.161	3973.553	840.479	4404.407	125.467
293	0.317	0.0002	5	348.204	163.065	841.700	447.320	3072.064	695.714	3988.886	866.802	4400.379	126.249
294	0.318	0.0002	5	349.385	166.961	846.978	440.610	3075.032	687.474	3996.042	899.953	4396.636	124.185
295	0.319	0.0002	5	352.638	173.854	852.182	440.812	3078.687	691.828	3992.156	943.751	4393.589	119.364
296	0.320	0.0002	5	358.041	184.042	857.565	449.707	3084.145	709.521	3975.649	999.971	4391.515	112.543
297	0.321	0.0002	5	365.340	197.083	863.471	467.258	3093.089	737.927	3946.161	1068.384	4390.510	104.843
298	0.322	0.0002	5	373.811	211.740	870.302	491.430	3107.747	770.759	3904.327	1147.721	4390.544	97.297
299	0.323	0.0002	5	382.125	226.213	878.502	518.153	3130.052	798.485	3851.731	1236.246	4391.577	90.586
300	0.324	0.0002	5	388.449	238.615	888.458	541.671	3159.725	809.984	3791.636	1330.695	4393.662	84.997
301	0.325	0.0002	5	390.983	247.350	900.304	555.769	3192.080	797.038	3730.475	1422.965	4396.943	80.523
302	0.326	0.0002	5	388.831	251.137	913.776	555.912	3219.086	762.068	3677.059	1496.379	4401.563	76.974
303	0.327	0.0002	5	382.591	249.178	928.119	541.158	3235.827	718.233	3636.916	1532.036	4407.518	74.102
304	0.328	0.0002	5	374.093	241.814	942.095	514.252	3243.438	676.222	3609.840	1525.598	4414.527	71.727
305	0.329	0.0002	5	365.408	230.772	954.292	479.830	3245.244	638.075	3593.706	1489.813	4422.041	69.863
306	0.330	0.0002	5	358.014	218.366	963.642	442.362	3244.067	601.445	3587.014	1442.655	4429.355	68.751
307	0.331	0.0002	5	352.588	206.460	969.718	405.050	3241.839	564.080	3589.113	1397.781	4435.781	68.788
308	0.332	0.0002	5	349.203	196.007	972.689	369.706	3239.754	525.598	3599.743	1362.160	4440.763	70.382
309	0.333	0.0002	5	347.591	187.150	973.121	337.088	3238.513	487.265	3618.364	1338.126	4443.925	73.816
310	0.334	0.0002	5	347.330	179.543	971.772	307.342	3238.572	451.006	3643.701	1326.324	4445.076	79.139
311	0.335	0.0002	5	347.961	172.668	969.410	280.347	3240.244	418.640	3673.807	1327.572	4444.218	86.086
312	0.336	0.0002	5	349.072	166.074	966.700	255.950	3243.719	391.575	3706.459	1343.380	4441.561	94.020
313	0.337	0.0002	5	350.362	159.522	964.140	234.073	3249.092	370.829	3739.447	1375.719	4437.543	101.937
314	0.338	0.0002	5	351.679	153.052	962.059	214.758	3256.467	357.187	3770.490	1426.644	4432.811	108.603
315	0.339	0.0002	5	353.007	146.971	960.671	198.176	3266.085	351.397	3796.859	1498.147	4428.140	112.831
316	0.340	0.0002	5	354.438	141.791	960.140	184.615	3278.447	354.291	3814.938	1592.155	4424.271	113.861
317	0.341	0.0002	5	356.111	138.125	960.635	174.427	3294.367	366.780	3819.863	1710.027	4421.717	111.663
318	0.342	0.0002	5	358.156	136.539	962.340	167.932	3314.897	389.671	3805.283	1850.162	4420.646	106.976
319	0.343	0.0002	5	360.639	137.355	965.403	165.230	3341.065	423.406	3763.357	2002.089	4420.878	101.067
320	0.344	0.0002	5	363.519	140.417	969.839	165.966	3373.549	467.961	3686.055	2137.779	4422.012	95.332
321	0.345	0.0002	5	366.617	144.941	975.447	169.175	3412.810	522.649	3570.095	2210.289	4423.556	90.962
322	0.346	0.0002	5	369.667	149.690	981.842	173.436	3424.869	2178.912	3459.842	583.887	4425.032	88.850
323	0.347	0.0002	5	372.446	153.579	988.639	177.430	3273.683	2051.727	3514.973	640.271	4426.056	89.754
324	0.348	0.0002	5	374.914	156.254	995.633	180.486	3144.033	1882.551	3572.541	677.630	4426.395	94.507
325	0.349	0.0002	5	377.231	158.086	1002.760	182.582	3053.252	1713.543	3623.798	698.435	4425.918	104.039
326	0.350	0.0002	5	379.685	159.717	1009.937	183.923	3001.817	1555.645	3666.313	716.248	4424.411	119.182
327	0.351	0.0002	5	382.626	161.720	1017.000	184.667	2982.584	1406.341	3701.513	741.548	4421.324	140.339
328	0.352	0.0002	5	386.435	164.565	1023.742	185.018	2988.284	1260.939	3730.811	782.380	4415.631	167.018
329	0.353	0.0002	5	391.486	168.639	1029.983	185.433	3012.129	1116.551	3755.547	846.879	4406.025	197.189
330	0.354	0.0002	5	398.051	174.134	1035.590	186.629	3046.446	973.418	3777.498	941.946	4391.659	226.591
331	0.355	0.0002	5	406.167	180.830	1040.499	189.379	3083.006	836.349	3797.387	1068.348	4373.427	249.004
332	0.356	0.0002	5	415.466	187.994	1044.731	194.271	3116.165	714.694	3811.271	1215.839	4354.842	259.220
333	0.357	0.0002	5	425.110	194.602	1048.388	201.615	3145.429	616.664	3810.011	1365.579	4340.523	257.454
334	0.358	0.0002	5	433.958	199.840	1051.638	211.481	3173.756	544.004	3784.989	1499.807	4332.988	248.838
335	0.359	0.0002	5	440.981	203.489	1054.722	223.734	3204.785	492.583	3732.722	1610.627	4331.824	238.553
336	0.360	0.0002	5	445.677	205.902	1058.000	237.934	3241.349	454.034	3655.251	1703.656	4335.209	229.594
337	0.361	0.0002	5	448.149	207.688	1062.002	253.022	3283.581	416.511	3559.786	1796.888	4341.264	223.465
338	0.362	0.0002	5	448.849	209.456	1067.328	266.873	3326.597	370.646	3458.396	1910.315	4348.621	221.121
339	0.363	0.0002	5	448.255	211.712	1074.336	276.039	3362.635	2047.506	3363.680	319.361	4356.564	223.331
340	0.364	0.0002	5	446.690	214.802	1082.649	276.381	3276.561	2188.364	3392.525	272.976	4364.924	230.750
341	0.365	0.0002	5	444.311	218.765	1090.916	265.046	3198.513	2289.411	3414.498	238.685	4373.850	244.052
342	0.366	0.0002	5	441.227	223.081	1097.440	242.624	3126.884	2292.830	3431.699	219.373	4383.465	264.158
343	0.367	0.0002	5	437.656	226.712	1101.409	213.204	3064.165	2164.390	3446.089	215.921	4393.373	292.442
344	0.368	0.0002	5	434.045	228.787	1103.418	182.145	3015.713	1928.673	3459.636	228.824	4402.209	331.069
345	0.369	0.0002	5	430.964	229.372	1104.719	153.756	2984.545	1645.912	3474.638	259.030	4407.731	383.621
346	0.370	0.0002	5	428.819	229.381	1106.287	130.311	2968.874	1362.923	3494.334	307.964	4407.638	455.455
347	0.371	0.0001	5	427.697	229.883	1108.540	112.301	2962.438	1098.389	3524.059	374.476	4400.545	553.417
348	0.372	0.0001	5	427.422	231.674	1111.537	99.246	2956.413	861.044	3570.215	444.929	4386.869	685.666
349	0.373	0.0001	5	427.661	235.209	1115.196	90.397	2946.902	664.374	3631.142	489.128	4370.739	861.259
350	0.374	0.0001	5	427.995	240.498	1119.419	85.055	2937.172	513.767	3691.072	485.158	4363.696	1083.412
351	0.375	0.0001	5	427.963	246.958	1124.158	82.680	2929.917	402.779	3731.934	445.276	4381.047	1331.677
352	0.376	0.0001	5	427.144	253.455	1129.475	82.922	2925.488	322.382	3751.216	400.530	4426.353	1572.978
353	0.377	0.0001	5	425.284	258.525	1135.570	85.629	2923.473	264.935	3756.742	365.762	4494.853	1794.417
354	0.378	0.0001	5	422.415	260.717	1142.815	90.811	2923.470	224.739	3754.425	342.048	4584.047	1998.221
355	0.379	0.0001	5	418.880	259.005	1151.773	98.570	2925.261	197.782	3746.868	327.189	4695.349	2189.802
356	0.380	0.0001	5	415.189	253.106	1163.213	108.968	2928.831	181.316	3734.948	318.918	4837.473	2376.614
357	0.381	0.0001	5	411.808	243.500	1178.066	121.773	2934.334	173.480	3718.982	315.347	5046.464	2571.603
358	0.382	0.0001	4	408.988	231.166	1197.213	136.032	2942.046	173.011	3699.227	315.054	--undefined--	--undefined--
359	0.383	0.0001	4	406.736	217.326	1220.985	149.659	2952.272	179.037	3675.876	317.194	--undefined--	--undefined--
360	0.384	0.0001	4	404.931	203.373	1248.472	159.647	2965.186	191.002	3648.796	321.528	--undefined--	--undefined--
361	0.385	0.0001	4	403.476	190.773	1277.289	163.398	2980.611	208.831	3617.328	328.172	--undefined--	--undefined--
362	0.386	0.0001	4	402.374	180.636	1304.448	160.358	2997.847	233.387	3580.316	336.952	--undefined--	--undefined--
363	0.387	0.0001	4	401.640	173.187	1327.796	152.151	3015.595	267.257	3536.273	346.150	--undefined--	--undefined--
364	0.388	0.0001	4	401.186	167.670	1346.690	141.206	3031.809	316.111	3483.873	350.186	--undefined--	--undefined--
365	0.389	0.0001	4	400.820	162.797	1361.624	129.482	3042.405	390.685	3424.193	335.988	--undefined--	--undefined--
366	0.390	0.0001	4	400.356	157.454	1373.573	118.117	3035.502	500.756	3368.317	287.110	--undefined--	--undefined--
367	0.391	0.0001	4	399.729	151.246	1383.557	107.606	2996.820	617.029	3334.368	222.154	--undefined--	--undefined--
368	0.392	0.0001	4	399.023	144.547	1392.432	98.103	2939.833	696.866	3318.142	174.848	--undefined--	--undefined--
369	0.393	0.0001	4	398.388	138.087	1400.764	89.627	2885.347	739.200	3309.753	146.994	--undefined--	--undefined--
370	0.394	0.0001	4	397.946	132.457	1408.794	82.153	2844.235	760.415	3305.054	132.503	--undefined--	--undefined--
371	0.395	0.0001	4	397.728	127.884	1416.517	75.623	2819.291	777.452	3302.199	127.012	--undefined--	--undefined--
372	0.396	0.0001	4	397.660	124.278	1423.813	69.953	2809.655	802.661	3300.001	127.976	--undefined--	--undefined--
373	0.397	0.0001	4	397.590	121.379	1430.566	65.032	2814.326	843.648	3297.483	133.863	--undefined--	--undefined--
374	0.398	0.0001	4	397.322	118.850	1436.706	60.718	2833.728	903.930	3293.785	143.338	--undefined--	--undefined--
375	0.399	0.0001	4	396.678	116.286	1442.178	56.838	2869.358	982.664	3288.247	154.444	--undefined--	--undefined--
376	0.400	0.0001	4	395.530	113.207	1446.900	53.224	2921.418	1073.906	3280.719	164.044	--undefined--	--undefined--
377	0.401	0.0001	4	393.836	109.167	1450.756	49.784	2985.150	1167.344	3272.074	168.461	--undefined--	--undefined--
378	0.402	0.0001	4	391.649	104.049	1453.663	46.546	3049.989	1252.013	3264.154	166.071	--undefined--	--undefined--
379	0.403	0.0001	4	389.133	98.356	1455.658	43.630	3106.630	1320.461	3258.319	159.249	--undefined--	--undefined--
380	0.404	0.0002	4	386.541	93.220	1456.926	41.207	3157.519	1369.523	3254.175	152.393	--undefined--	--undefined--
381	0.405	0.0002	4	384.140	90.057	1457.745	39.507	3217.704	1400.705	3250.120	148.751	--undefined--	--undefined--
382	0.406	0.0002	4	382.146	90.172	1458.390	38.821	3244.662	149.127	3301.676	1417.654	--undefined--	--undefined--
383	0.407	0.0002	4	380.703	94.719	1459.115	39.501	3237.436	152.889	3409.311	1415.822	--undefined--	--undefined--
384	0.408	0.0002	5	379.921	105.118	1460.205	41.991	3229.056	160.603	3524.005	1381.583	5352.101	1149.779
385	0.409	0.0004	5	379.887	123.599	1462.037	46.869	3219.859	174.710	3624.076	1308.668	5380.601	1148.819
386	0.410	0.0004	4	380.578	153.566	1465.021	54.826	3209.550	197.213	3698.481	1208.151	--undefined--	--undefined--
387	0.411	0.0004	4	381.649	199.815	1469.465	66.618	3198.156	227.755	3751.356	1098.424	--undefined--	--undefined--
388	0.412	0.0004	4	381.988	268.862	1475.417	83.036	3187.140	263.614	3793.118	995.000	--undefined--	--undefined--
389	0.413	0.0004	4	378.825	369.479	1482.517	104.874	3179.706	301.580	3831.408	909.275	--undefined--	--undefined--
390	0.414	0.0007	4	365.770	513.049	1489.877	132.622	3179.575	339.828	3869.221	848.352	--undefined--	--undefined--
391	0.415	0.0007	4	327.981	712.194	1496.164	165.539	3188.806	377.059	3907.117	813.442	--undefined--	--undefined--
392	0.416	0.0007	4	224.584	972.612	1500.456	200.400	3205.852	409.683	3944.300	797.496	--undefined--	--undefined--
393	0.417	0.0007	3	1504.008	232.511	3224.681	430.640	3976.884	783.817	--undefined--	--undefined--	--undefined--	--undefined--
394	0.418	0.0007	3	1510.521	260.575	3237.326	431.987	3997.711	752.133	--undefined--	--undefined--	--undefined--	--undefined--
395	0.419	0.0007	3	1523.220	288.513	3240.721	409.979	4004.301	692.556	--undefined--	--undefined--	--undefined--	--undefined--
396	0.420	0.0007	4	1542.958	321.179	3239.413	370.509	4003.306	614.728	5195.892	1097.583	--undefined--	--undefined--
397	0.421	0.0007	4	1569.252	362.147	3239.252	327.350	4001.129	538.701	5097.718	917.246	--undefined--	--undefined--
398	0.422	0.0007	4	1601.850	414.526	3243.038	292.614	3999.422	478.356	5046.000	784.357	--undefined--	--undefined--
399	0.423	0.0007	5	176.972	1047.388	1641.342	480.018	3251.881	272.416	3998.293	438.550	5016.968	696.080
400	0.424	0.0007	5	222.077	970.544	1687.748	554.589	3267.023	268.545	3998.365	419.441	5002.968	646.802
401	0.425	0.0007	5	232.660	937.485	1736.397	624.491	3290.389	280.509	4000.721	419.650	5001.491	632.236
402	0.426	0.0007	5	206.064	962.030	1775.015	671.433	3324.422	306.200	4006.133	438.173	5011.106	649.922
403	0.427	0.0007	5	77.773	1061.461	1790.560	685.068	3371.825	341.535	4014.839	476.296	5030.489	699.891
404	0.428	0.0007	4	1781.699	665.783	3435.271	378.065	4027.724	539.121	5059.262	784.520	--undefined--	--undefined--
405	0.429	0.0007	4	1760.049	621.685	3514.577	398.374	4049.193	635.314	5098.932	906.642	--undefined--	--undefined--
406	0.430	0.0007	4	1738.682	569.289	3598.712	382.649	4090.871	767.045	5151.916	1065.454	--undefined--	--undefined--
407	0.431	0.0007	4	1722.942	527.023	3669.524	342.120	4161.894	908.608	5212.989	1249.973	--undefined--	--undefined--
408	0.432	0.0007	4	1711.960	506.359	3725.678	307.935	4253.241	1045.312	5242.770	1444.118	--undefined--	--undefined--
409	0.433	0.0007	4	1703.345	510.293	3776.006	287.906	4379.470	1214.683	5162.381	1677.604	--undefined--	--undefined--
410	0.434	0.0007	4	1695.181	534.845	3825.167	273.794	4651.126	1195.045	4942.385	2500.414	--undefined--	--undefined--
411	0.435	0.0007	4	1686.103	570.251	3433.702	3888.166	3871.864	257.492	4729.211	865.730	--undefined--	--undefined--
412	0.436	0.0007	4	1674.959	601.933	3054.868	2806.436	3912.846	238.924	4743.131	693.451	--undefined--	--undefined--
413	0.437	0.0007	4	1661.259	613.693	2935.728	2241.782	3946.865	222.146	4744.777	589.802	--undefined--	--undefined--
414	0.438	0.0007	4	1646.338	596.364	2893.466	1885.674	3974.352	209.747	4741.455	526.138	--undefined--	--undefined--
415	0.439	0.0007	4	1632.866	555.274	2881.026	1647.224	3995.962	202.072	4734.911	489.623	--undefined--	--undefined--
416	0.440	0.0007	4	1622.967	505.353	2874.436	1486.000	4011.929	198.165	4724.978	472.723	--undefined--	--undefined--
417	0.441	0.0007	4	1617.593	460.336	2859.340	1377.515	4022.050	196.425	4710.394	468.728	--undefined--	--undefined--
418	0.442	0.0007	4	1616.959	427.733	2828.167	1301.121	4026.127	194.832	4690.120	468.037	--undefined--	--undefined--
419	0.443	0.0007	4	1620.890	409.551	2780.197	1236.746	4024.716	191.294	4666.506	458.030	--undefined--	--undefined--
420	0.444	0.0007	4	1628.874	404.309	2721.397	1168.837	4019.534	184.719	4646.436	432.026	--undefined--	--undefined--
421	0.445	0.0007	4	1640.005	408.276	2661.177	1091.621	4012.848	176.112	4635.644	395.027	--undefined--	--undefined--
422	0.446	0.0007	4	1652.864	415.988	2607.766	1008.346	4006.389	168.044	4634.576	355.627	--undefined--	--undefined--
423	0.447	0.0007	4	1665.415	420.867	2565.797	925.737	4001.043	163.032	4640.388	319.367	--undefined--	--undefined--
424	0.448	0.0007	4	1675.143	416.794	2536.396	849.350	3997.303	162.601	4649.743	288.954	--undefined--	--undefined--
425	0.449	0.0007	4	1679.737	400.581	2518.130	782.104	3995.770	167.269	4660.103	265.973	--undefined--	--undefined--
426	0.450	0.0007	4	1678.098	373.539	2508.114	725.040	3997.363	176.692	4670.015	251.805	--undefined--	--undefined--
427	0.451	0.0007	4	1670.777	340.321	2503.326	678.537	4003.161	189.494	4678.969	247.918	--undefined--	--undefined--
428	0.452	0.0007	4	1659.402	306.139	2501.747	642.984	4013.861	202.874	4687.163	255.947	--undefined--	--undefined--
429	0.453	0.0007	4	1645.747	274.860	2502.735	619.121	4029.059	212.823	4695.274	277.789	--undefined--	--undefined--
430	0.454	0.0007	4	1631.162	248.659	2506.800	608.259	4047.065	215.654	4704.150	315.837	--undefined--	--undefined--
431	0.455	0.0007	4	1616.421	228.374	2515.036	611.827	4065.733	210.058	4714.307	373.319	--undefined--	--undefined--
432	0.456	0.0007	4	1601.787	213.941	2528.312	630.288	4083.493	197.787	4725.149	454.084	--undefined--	--undefined--
433	0.457	0.0007	4	1587.190	204.769	2546.454	662.107	4099.510	182.551	4734.046	559.827	--undefined--	--undefined--
434	0.458	0.0007	4	1572.404	199.976	2567.818	702.855	4113.240	168.427	4736.356	682.451	--undefined--	--undefined--
435	0.459	0.0007	4	1557.219	198.324	2589.513	744.057	4124.233	158.779	4729.201	796.612	--undefined--	--undefined--
436	0.460	0.0007	4	1541.801	198.056	2608.775	772.635	4132.204	155.624	4717.360	868.769	--undefined--	--undefined--
437	0.461	0.0007	4	1527.244	197.541	2625.211	774.246	4136.958	159.397	4710.618	878.389	--undefined--	--undefined--
438	0.462	0.0007	4	1515.489	197.233	2641.161	743.190	4138.326	169.198	4714.775	826.586	--undefined--	--undefined--
439	0.463	0.0007	4	1508.041	200.409	2658.045	690.084	4136.449	183.601	4728.460	733.115	--undefined--	--undefined--
440	0.464	0.0005	4	1505.183	211.063	2673.971	634.531	4131.951	202.042	4746.613	625.274	--undefined--	--undefined--
441	0.465	0.0005	4	1506.637	232.178	2686.187	592.392	4125.402	225.599	4764.595	523.907	--undefined--	--undefined--
442	0.466	0.0005	4	1512.299	265.730	2693.219	571.526	4116.545	255.931	4779.743	439.558	--undefined--	--undefined--
443	0.467	0.0005	4	1522.321	312.707	2694.434	573.543	4104.073	293.119	4791.607	376.443	--undefined--	--undefined--
444	0.468	0.0005	4	1536.894	372.320	2689.135	595.450	4086.405	333.377	4801.630	335.375	--undefined--	--undefined--
445	0.469	0.0005	4	1556.093	441.086	2677.144	630.047	4064.172	368.150	4812.236	315.147	--undefined--	--undefined--
446	0.470	0.0005	4	1579.893	512.753	2661.028	667.833	4042.910	388.609	4825.831	314.036	--undefined--	--undefined--
447	0.471	0.0005	4	1608.106	578.540	2647.144	701.371	4030.696	393.746	4843.882	330.594	--undefined--	--undefined--
448	0.472	0.0003	4	1639.430	627.119	2642.878	726.297	4031.700	390.140	4866.147	363.355	--undefined--	--undefined--
449	0.473	0.0003	4	1669.453	648.134	2652.002	737.430	4044.193	385.076	4890.545	410.782	--undefined--	--undefined--
450	0.474	0.0003	4	1691.278	640.771	2671.783	729.580	4063.566	383.831	4914.146	470.506	--undefined--	--undefined--
451	0.475	0.0003	4	1700.491	615.381	2695.193	704.554	4085.032	389.634	4934.324	536.601	--undefined--	--undefined--
452	0.476	0.0003	4	1697.407	583.834	2715.828	671.582	4103.787	403.867	4948.532	600.316	--undefined--	--undefined--
453	0.477	0.0003	4	1684.813	552.932	2729.326	641.131	4114.430	427.318	4953.288	657.956	--undefined--	--undefined--
454	0.478	0.0003	4	1666.440	525.372	2732.592	621.283	4111.514	459.342	4943.163	713.514	--undefined--	--undefined--
455	0.479	0.0003	4	1646.592	502.880	2723.608	616.964	4091.907	493.257	4911.163	760.597	--undefined--	--undefined--
456	0.480	0.0003	4	1628.929	487.734	2701.596	630.314	4059.360	516.837	4865.330	767.402	--undefined--	--undefined--
457	0.481	0.0003	4	1614.997	481.941	2667.294	662.023	4024.666	526.434	4832.210	741.518	--undefined--	--undefined--
458	0.482	0.0004	4	1604.319	485.782	2622.887	713.926	3997.042	533.638	4817.593	722.599	--undefined--	--undefined--
459	0.483	0.0004	4	1596.333	496.971	2570.791	792.529	3979.825	555.321	4815.442	730.893	--undefined--	--undefined--
460	0.484	0.0004	4	1593.637	510.136	2511.931	912.397	3973.339	607.825	4819.852	777.729	--undefined--	--undefined--
461	0.485	0.0004	4	1605.258	516.558	2446.885	1102.967	3978.514	709.393	4821.405	876.992	--undefined--	--undefined--
462	0.486	0.0004	4	1642.201	496.494	2388.536	1432.326	4000.253	890.439	4791.649	1039.014	--undefined--	--undefined--
463	0.487	0.0004	4	1690.718	419.004	2419.883	2007.922	4047.881	1243.010	4664.145	1163.968	--undefined--	--undefined--
464	0.488	0.0004	4	1720.012	319.216	2749.317	2466.640	3996.788	1860.301	4554.178	926.750	--undefined--	--undefined--
465	0.489	0.0004	4	1733.172	243.963	2922.065	2118.288	3925.026	1951.055	4575.777	727.128	--undefined--	--undefined--
466	0.490	0.0004	4	1739.535	196.879	2844.780	1814.787	3912.744	1658.880	4610.804	593.472	--undefined--	--undefined--
467	0.491	0.0004	4	1742.880	170.579	2748.040	1603.420	3903.115	1394.747	4638.976	490.780	--undefined--	--undefined--
468	0.492	0.0004	4	1744.274	159.177	2668.450	1460.402	3893.024	1217.731	4656.675	415.079	--undefined--	--undefined--
469	0.493	0.0004	4	1743.708	159.798	2599.679	1380.612	3884.368	1107.921	4665.134	365.281	--undefined--	--undefined--
470	0.494	0.0004	4	1740.621	171.949	2529.179	1353.736	3880.112	1045.397	4666.041	339.236	--undefined--	--undefined--
471	0.495	0.0004	4	1733.967	196.805	2443.845	1360.599	3883.759	1017.221	4660.371	334.890	--undefined--	--undefined--
472	0.496	0.0004	4	1721.824	236.545	2332.569	1361.063	3898.732	1015.320	4648.432	350.868	--undefined--	--undefined--
473	0.497	0.0004	4	1700.200	292.522	2204.489	1282.000	3928.069	1033.623	4630.214	386.132	--undefined--	--undefined--
474	0.498	0.0004	4	1661.531	356.524	2113.448	1097.029	3974.817	1064.065	4605.936	439.111	--undefined--	--undefined--
475	0.499	0.0004	4	1604.308	393.958	2091.056	910.562	4042.850	1088.275	4577.317	507.436	--undefined--	--undefined--
476	0.500	0.0004	4	1549.239	383.798	2105.687	798.329	4134.393	1060.325	4551.156	592.560	--undefined--	--undefined--
477	0.501	0.0004	4	1510.519	348.818	2130.160	751.822	4222.933	898.690	4553.929	708.862	--undefined--	--undefined--
478	0.502	0.0004	4	1488.018	307.904	2158.928	753.267	4236.635	686.041	4626.000	757.572	--undefined--	--undefined--
479	0.503	0.0004	4	1477.536	267.198	2193.803	783.939	4231.169	558.956	4686.902	690.591	--undefined--	--undefined--
480	0.504	0.0004	4	1472.862	227.388	2231.378	813.078	4235.549	477.380	4716.464	622.970	--undefined--	--undefined--
481	0.505	0.0004	4	1468.188	190.686	2257.947	822.381	4248.210	419.510	4728.128	591.644	--undefined--	--undefined--
482	0.506	0.0004	4	1461.400	160.489	2265.995	821.949	4264.525	372.886	4731.020	598.675	--undefined--	--undefined--
483	0.507	0.0004	4	1453.230	137.666	2259.270	826.470	4279.973	330.762	4730.124	638.499	--undefined--	--undefined--
484	0.508	0.0004	4	1444.948	121.035	2243.721	844.686	4291.767	291.716	4728.127	705.799	--undefined--	--undefined--
485	0.509	0.0004	4	1437.457	109.072	2222.787	881.255	4299.364	256.708	4726.532	798.003	--undefined--	--undefined--
486	0.510	0.0004	4	1431.224	100.621	2197.044	938.692	4303.532	226.438	4726.663	915.910	--undefined--	--undefined--
487	0.511	0.0004	4	1426.403	94.938	2164.874	1018.548	4305.270	200.849	4730.201	1063.777	--undefined--	--undefined--
488	0.512	0.0004	4	1422.941	91.574	2122.658	1122.054	4305.397	179.548	4739.047	1250.717	--undefined--	--undefined--
489	0.513	0.0004	4	1420.662	90.260	2063.665	1249.509	4304.535	162.085	4754.088	1495.197	--undefined--	--undefined--
490	0.514	0.0004	4	1419.291	90.867	1974.526	1394.170	4303.164	147.975	4770.535	1834.544	--undefined--	--undefined--
491	0.515	0.0004	4	1418.452	93.446	1832.750	1509.388	4301.630	136.662	4765.793	2343.482	--undefined--	--undefined--
492	0.516	0.0004	4	1417.596	98.431	1656.446	1463.759	4300.075	127.559	4660.568	3308.714	--undefined--	--undefined--
493	0.517	0.0004	4	1415.879	107.080	1530.207	1277.061	3684.891	3332.200	4298.339	120.302	--undefined--	--undefined--
494	0.518	0.0004	4	1411.953	122.185	1452.108	1065.890	3463.251	2605.926	4296.011	115.271	--undefined--	--undefined--
495	0.519	0.0004	4	1400.752	854.396	1403.627	148.656	3350.268	2242.543	4292.765	114.000	--undefined--	--undefined--
496	0.520	0.0004	4	1374.597	655.035	1386.429	192.719	3261.335	2099.926	4288.732	119.016	--undefined--	--undefined--
497	0.521	0.0004	4	1343.088	244.906	1390.905	499.938	3175.347	2163.872	4284.535	132.997	--undefined--	--undefined--
498	0.522	0.0004	4	1292.290	210.144	1430.331	487.243	3069.848	2442.559	4281.208	156.773	--undefined--	--undefined--
499	0.523	0.0004	4	1270.080	164.336	1454.286	518.045	2911.225	2900.194	4280.174	185.702	--undefined--	--undefined--
500	0.524	0.0004	4	1258.420	135.119	1472.240	535.462	2672.666	3339.119	4282.016	207.829	--undefined--	--undefined--
501	0.525	0.0004	4	1250.984	120.396	1477.124	530.198	2415.533	3449.882	4284.318	212.466	--undefined--	--undefined--
502	0.526	0.0004	4	1245.196	117.340	1462.890	505.069	2258.819	3236.469	4283.719	201.852	--undefined--	--undefined--
503	0.527	0.0004	4	1239.173	126.273	1430.373	452.644	2226.118	2927.434	4279.452	185.661	--undefined--	--undefined--
504	0.528	0.0004	4	1228.967	151.834	1391.063	358.919	2276.448	2653.759	4272.517	170.637	--undefined--	--undefined--
505	0.529	0.0004	4	1202.409	185.682	1370.544	238.700	2364.751	2449.598	4264.013	159.325	--undefined--	--undefined--
506	0.530	0.0004	4	1167.235	185.532	1369.966	154.832	2459.868	2303.828	4254.789	152.002	--undefined--	--undefined--
507	0.531	0.0004	4	1142.157	167.262	1371.548	106.938	2543.224	2192.230	4245.509	147.861	--undefined--	--undefined--
508	0.532	0.0002	4	1126.486	150.552	1373.055	78.973	2603.663	2099.952	4236.599	145.888	--undefined--	--undefined--
509	0.533	0.0002	4	1116.786	140.735	1374.553	62.398	2637.678	2027.489	4228.207	145.535	--undefined--	--undefined--
510	0.534	0.0002	4	1110.558	138.129	1375.935	52.359	2649.055	1982.201	4220.324	146.813	--undefined--	--undefined--
511	0.535	0.0002	4	1106.219	142.133	1377.045	46.103	2645.073	1971.093	4212.876	150.053	--undefined--	--undefined--
512	0.536	0.0002	4	1102.749	152.644	1377.772	42.111	2632.990	2000.692	4205.710	155.807	--undefined--	--undefined--
513	0.537	0.00006	4	1099.403	170.487	1378.041	39.550	2619.005	2079.540	4198.498	164.927	--undefined--	--undefined--
514	0.538	0.00004	4	1095.460	197.607	1377.790	37.926	2609.323	2219.561	4190.685	178.658	--undefined--	--undefined--
515	0.539	0.00004	4	1089.879	237.201	1376.951	36.864	2612.453	2432.472	4181.580	198.492	--undefined--	--undefined--
516	0.540	0.00002	4	1080.541	293.649	1375.467	35.975	2641.141	2707.202	4170.879	225.286	--undefined--	--undefined--
517	0.541	0.000007	4	1062.792	371.428	1373.370	34.886	2705.340	2934.662	4160.054	256.794	--undefined--	--undefined--
518	0.542	0.000007	4	1028.832	469.784	1370.921	33.657	2775.263	2842.226	4153.827	284.144	--undefined--	--undefined--
519	0.543	0.000007	4	974.665	571.578	1368.527	33.458	2788.371	2347.109	4157.159	293.418	--undefined--	--undefined--
520	0.544	0.000007	4	913.866	649.948	1366.258	36.520	2758.293	1786.464	4168.321	280.038	--undefined--	--undefined--
521	0.545	0.000007	4	868.014	696.162	1363.590	45.179	2719.066	1366.172	4181.972	255.613	--undefined--	--undefined--
522	0.546	0.000007	4	844.463	715.598	1359.520	60.860	2681.755	1078.353	4195.335	231.703	--undefined--	--undefined--
523	0.547	0.000007	4	837.192	720.114	1352.809	82.517	2651.351	876.459	4207.234	212.263	--undefined--	--undefined--
524	0.548	0.000007	4	836.416	727.938	1342.579	105.760	2630.321	730.838	4216.729	197.692	--undefined--	--undefined--
525	0.549	0.000007	4	834.270	758.512	1328.992	125.671	2618.580	627.147	4223.058	188.019	--undefined--	--undefined--
526	0.550	0.000007	4	825.490	831.728	1313.027	140.448	2614.036	558.853	4225.944	183.793	--undefined--	--undefined--
527	0.551	0.000007	4	804.167	974.032	1295.960	150.813	2613.514	523.006	4225.849	186.140	--undefined--	--undefined--
528	0.552	0.000007	4	754.880	1232.442	1279.641	157.834	2613.593	520.212	4224.026	197.084	--undefined--	--undefined--
529	0.553	0.000007	4	606.866	1732.153	1266.743	163.199	2610.683	559.598	4222.208	220.785	--undefined--	--undefined--
530	0.554	0.000007	3	1259.670	169.550	2596.393	675.359	4222.141	265.909	--undefined--	--undefined--	--undefined--	--undefined--
531	0.555	0.000007	4	1258.737	176.682	2501.946	948.820	3201.288	2643.515	4226.380	345.651	--undefined--	--undefined--
532	0.556	0.000007	4	1259.146	178.118	2255.996	956.444	3425.005	1248.179	4237.993	457.930	--undefined--	--undefined--
533	0.557	0.000007	4	1251.865	171.440	2104.564	839.007	3501.345	749.083	4237.295	569.995	--undefined--	--undefined--
534	0.558	0.000004	4	1235.139	162.535	1978.554	763.930	3532.004	546.853	4187.739	681.501	--undefined--	--undefined--
535	0.559	0.000003	4	1215.049	149.235	1869.916	685.224	3553.244	484.863	4079.018	773.164	--undefined--	--undefined--
536	0.560	0.000003	4	1199.058	129.540	1798.722	588.388	3571.812	505.738	3932.198	768.306	--undefined--	--undefined--
537	0.561	0.000003	4	1189.527	109.974	1765.559	506.039	3573.172	615.575	3810.041	602.931	--undefined--	--undefined--
538	0.562	0.000003	4	1184.122	94.675	1753.219	450.495	3512.280	702.118	3785.717	428.378	--undefined--	--undefined--
539	0.563	0.000003	4	1180.483	83.496	1749.732	415.618	3462.079	710.021	3781.839	345.745	--undefined--	--undefined--
540	0.564	0.000003	4	1177.384	75.213	1749.711	394.430	3431.167	708.902	3777.963	299.966	--undefined--	--undefined--
541	0.565	0.000003	4	1174.304	68.803	1751.044	382.369	3412.004	716.546	3773.278	272.036	--undefined--	--undefined--
542	0.566	0.000003	4	1171.038	63.603	1752.983	376.774	3399.649	736.853	3767.852	253.836	--undefined--	--undefined--
543	0.567	0.000003	4	1167.503	59.218	1755.311	376.269	3391.274	771.200	3761.741	241.180	--undefined--	--undefined--
544	0.568	0.000003	4	1163.657	55.441	1758.042	380.408	3385.300	821.453	3754.979	231.738	--undefined--	--undefined--
545	0.569	0.00007	4	1159.477	52.191	1761.365	389.540	3380.951	890.938	3747.633	224.183	--undefined--	--undefined--
546	0.570	0.00007	4	1154.955	49.491	1765.722	404.882	3378.252	985.073	3739.844	217.861	--undefined--	--undefined--
547	0.571	0.00007	4	1150.101	47.471	1772.054	428.791	3378.701	1112.286	3731.842	212.742	--undefined--	--undefined--
548	0.572	0.00007	4	1144.966	46.359	1782.358	465.044	3387.301	1285.154	3723.937	209.514	--undefined--	--undefined--
549	0.573	0.00007	4	1139.673	46.435	1800.830	518.082	3417.729	1518.277	3716.527	209.736	--undefined--	--undefined--
550	0.574	0.00007	4	1134.427	47.844	1835.047	587.521	3500.734	1803.528	3710.204	216.174	--undefined--	--undefined--
551	0.575	0.00007	4	1129.379	50.342	1891.053	655.215	3663.393	2035.427	3705.899	233.622	--undefined--	--undefined--
552	0.576	0.00007	4	1124.256	53.677	1956.760	699.168	3704.971	270.521	3845.860	2077.208	--undefined--	--undefined--
553	0.577	0.00007	4	1118.292	59.142	2011.943	743.935	3709.190	341.079	3959.007	1977.005	--undefined--	--undefined--
554	0.578	0.00007	4	1110.379	70.671	2050.382	834.826	3720.671	464.664	3977.340	1832.862	--undefined--	--undefined--
555	0.579	0.00007	4	1097.019	95.106	2061.006	1006.530	3739.730	638.830	3909.619	1696.840	--undefined--	--undefined--
556	0.580	0.00007	4	1068.381	136.957	2004.500	1252.357	3738.931	695.670	3821.193	1752.676	--undefined--	--undefined--
557	0.581	0.00007	4	1025.700	169.556	1881.765	1451.046	3700.730	504.329	3762.571	2240.067	--undefined--	--undefined--
558	0.582	0.00007	4	999.122	174.920	1747.279	1685.221	3517.434	2939.334	3684.263	332.914	--undefined--	--undefined--
559	0.583	0.00007	4	990.524	173.912	1510.206	1894.697	3062.217	2954.857	3681.586	248.635	--undefined--	--undefined--
560	0.584	0.00007	4	988.603	171.486	1338.261	1780.350	2943.435	2487.160	3682.958	211.274	--undefined--	--undefined--
561	0.585	0.00007	4	988.843	168.641	1245.428	1682.286	2907.712	2276.710	3684.336	193.224	--undefined--	--undefined--
562	0.586	0.00007	4	990.028	166.303	1152.953	1592.314	2824.500	2186.853	3684.442	182.932	--undefined--	--undefined--
563	0.587	0.00007	4	991.702	164.378	1068.557	1476.638	2711.533	2063.218	3683.554	176.002	--undefined--	--undefined--
564	0.588	0.00007	4	993.445	162.124	1007.099	1360.917	2635.128	1905.988	3682.580	170.993	--undefined--	--undefined--
565	0.589	0.00007	4	965.710	1266.771	994.834	159.009	2599.445	1786.068	3682.250	167.542	--undefined--	--undefined--
566	0.590	0.00007	5	937.769	1194.520	995.594	155.082	2586.713	1712.948	3682.799	165.479	5140.769	1876.124
567	0.591	0.00007	5	918.863	1137.395	995.639	150.725	2586.619	1675.388	3684.148	164.644	4967.371	1753.850
568	0.592	0.00007	5	906.648	1089.275	994.990	146.339	2594.337	1663.711	3686.121	164.940	4886.402	1696.110
569	0.593	0.00007	5	899.983	1046.267	993.705	142.229	2607.703	1672.772	3688.548	166.400	4841.515	1680.668
570	0.594	0.00007	5	898.333	1006.309	991.849	138.606	2626.034	1701.199	3691.287	169.218	4816.909	1697.927
571	0.595	0.00007	5	901.375	968.453	989.496	135.629	2649.812	1750.503	3694.210	173.792	4807.028	1744.915
572	0.596	0.00007	5	908.642	932.254	986.752	133.458	2680.876	1824.530	3697.181	180.811	4811.055	1822.957
573	0.597	0.00007	5	919.007	897.375	983.793	132.325	2723.148	1929.082	3700.019	191.414	4832.194	1937.449
574	0.598	0.00007	5	929.943	863.531	980.940	132.644	2784.451	2071.342	3702.430	207.506	4880.409	2101.008
575	0.599	0.00007	5	936.696	830.594	978.762	135.196	2881.593	2256.574	3703.885	232.357	4988.103	2347.464
576	0.600	0.00007	4	932.106	797.497	978.214	141.269	3054.011	2461.140	3703.352	271.720	--undefined--	--undefined--
577	0.601	0.00007	4	908.131	758.092	980.828	152.137	3347.883	2477.501	3698.568	336.000	--undefined--	--undefined--
578	0.602	0.00007	4	860.105	700.079	988.726	166.031	3592.825	2082.955	3683.170	445.396	--undefined--	--undefined--
579	0.603	0.00007	4	794.551	621.497	1001.650	173.124	3625.661	637.586	3756.032	1587.356	--undefined--	--undefined--
580	0.604	0.00007	4	730.433	539.114	1012.582	166.173	3463.565	710.180	3986.369	1280.521	--undefined--	--undefined--
581	0.605	0.00007	4	680.614	469.058	1016.299	151.502	3360.419	631.911	4152.838	1188.773	--undefined--	--undefined--
582	0.606	0.00007	4	645.735	419.975	1013.759	135.885	3297.456	571.265	4280.281	1124.430	--undefined--	--undefined--
583	0.607	0.00007	4	622.348	395.274	1008.083	122.879	3250.316	540.870	4383.321	1036.806	--undefined--	--undefined--
584	0.608	0.00007	4	606.844	398.079	1001.877	114.890	3207.498	536.084	4451.758	909.016	--undefined--	--undefined--
585	0.609	0.00007	4	595.276	435.281	996.194	113.515	3163.909	551.530	4481.643	770.592	--undefined--	--undefined--
586	0.610	0.00007	4	581.228	520.604	990.668	119.040	3118.050	584.144	4487.718	648.779	--undefined--	--undefined--
587	0.611	0.00007	4	551.123	676.698	984.739	130.156	3069.929	631.673	4484.274	551.260	--undefined--	--undefined--
588	0.612	0.00007	4	474.005	927.198	979.711	146.590	3019.041	691.130	4478.655	480.303	--undefined--	--undefined--
589	0.613	0.00007	4	283.002	1224.704	979.113	174.941	2962.736	758.949	4473.792	437.036	--undefined--	--undefined--
590	0.614	0.00007	4	128.864	1178.621	988.395	226.611	2898.046	828.739	4470.915	420.418	--undefined--	--undefined--
591	0.615	0.00007	4	267.271	819.397	1016.519	298.525	2828.161	885.046	4470.894	426.420	--undefined--	--undefined--
592	0.616	0.00007	5	312.566	529.792	1059.551	352.391	2767.014	908.755	4298.434	3683.158	4474.000	448.610
593	0.617	0.00007	5	316.291	361.826	1089.989	364.181	2728.031	893.936	4001.324	2639.972	4479.306	481.259
594	0.618	0.00007	5	311.279	274.192	1094.073	340.468	2713.025	842.808	3914.121	2120.440	4485.739	521.879
595	0.619	0.00007	5	306.240	227.002	1081.483	297.203	2718.501	765.633	3885.427	1839.677	4493.208	567.894
596	0.620	0.00007	5	302.559	198.330	1066.480	253.799	2736.302	678.726	3876.824	1700.793	4503.253	611.773
597	0.621	0.00005	5	300.037	179.360	1055.447	221.154	2756.779	593.068	3865.771	1646.607	4518.929	639.569
598	0.622	0.00005	5	298.250	166.526	1049.088	200.829	2774.523	513.863	3837.444	1640.810	4541.810	637.632
599	0.623	0.00005	5	296.859	157.682	1046.403	190.720	2788.615	443.330	3787.921	1658.297	4569.432	603.678
600	0.624	0.00005	5	295.676	151.185	1046.281	188.446	2800.069	382.261	3723.140	1679.428	4597.163	547.815
601	0.625	0.00005	5	294.643	145.825	1047.824	192.299	2810.031	330.783	3652.929	1691.841	4621.385	483.368
602	0.626	0.00005	5	293.812	140.852	1050.296	201.268	2819.280	288.546	3586.236	1692.337	4640.392	419.992
603	0.627	0.00005	5	293.306	135.965	1053.000	214.855	2828.295	254.744	3529.281	1685.578	4653.830	362.619
604	0.628	0.00005	5	293.292	131.249	1055.183	232.895	2837.380	228.238	3485.449	1680.967	4662.116	313.004
605	0.629	0.00006	5	293.939	127.026	1056.017	255.423	2846.701	207.793	3455.934	1689.328	4666.141	271.361
606	0.630	0.00006	5	295.381	123.687	1054.689	282.664	2856.272	192.311	3440.604	1720.459	4667.080	237.377
607	0.631	0.00006	5	297.695	121.549	1050.554	315.175	2865.934	180.998	3438.711	1781.701	4666.126	210.603
608	0.632	0.00006	5	300.882	120.805	1043.197	354.096	2875.327	173.457	3449.181	1876.522	4664.224	190.481
609	0.633	0.00006	5	304.876	121.542	1032.268	401.188	2883.873	169.720	3470.332	2001.564	4661.918	176.293
610	0.634	0.00006	5	309.556	123.760	1017.154	458.305	2890.768	170.145	3499.119	2141.674	4659.408	167.193
611	0.635	0.00006	5	314.753	127.353	996.787	526.061	2895.035	175.100	3530.456	2266.215	4656.704	162.371
612	0.636	0.00006	5	320.259	132.034	970.042	601.897	2895.673	184.374	3558.238	2335.859	4653.710	161.202
613	0.637	0.00006	5	325.804	137.279	937.014	678.798	2891.988	196.486	3579.200	2326.158	4650.197	163.256
614	0.638	0.00007	5	331.054	142.367	900.515	746.958	2884.050	208.485	3595.752	2250.287	4645.768	168.224
615	0.639	0.00007	5	335.667	146.622	865.765	799.030	2872.982	216.932	3612.813	2152.113	4639.907	175.948
616	0.640	0.00007	5	339.471	149.778	837.545	834.990	2860.642	219.655	3633.270	2078.640	4632.096	186.582
617	0.641	0.00007	5	342.649	152.162	817.533	862.269	2848.821	216.620	3658.144	2064.641	4621.863	200.762
618	0.642	0.00008	5	345.713	154.482	804.514	892.135	2838.711	209.284	3689.714	2137.364	4608.715	219.681
619	0.643	0.00008	5	349.267	157.364	796.703	935.736	2830.930	199.556	3735.504	2331.199	4591.930	244.922
620	0.644	0.00008	5	353.678	160.903	794.231	1000.937	2825.671	189.226	3817.456	2711.803	4570.302	277.825
621	0.645	0.00008	5	358.796	164.535	801.233	1088.434	2822.724	179.829	4015.205	3446.438	4542.121	318.084
622	0.646	0.00008	4	363.923	167.435	827.051	1184.624	2821.564	172.768	4505.984	362.070	--undefined--	--undefined--
623	0.647	0.00008	4	368.241	169.077	881.876	1250.360	2821.628	169.499	4462.624	403.623	--undefined--	--undefined--
624	0.648	0.00008	4	371.389	169.328	956.837	1228.733	2822.625	171.609	4415.550	439.212	--undefined--	--undefined--
625	0.649	0.00008	4	373.563	168.192	1018.122	1117.286	2824.685	180.879	4369.036	471.509	--undefined--	--undefined--
626	0.650	0.00008	4	375.153	165.641	1050.479	974.020	2828.414	199.392	4326.808	508.332	--undefined--	--undefined--
627	0.651	0.00008	4	376.423	161.520	1060.925	836.935	2834.904	229.342	4292.665	562.279	--undefined--	--undefined--
628	0.652	0.00008	4	377.537	155.645	1059.058	715.925	2845.566	271.713	4271.768	652.947	--undefined--	--undefined--
629	0.653	0.00008	4	378.728	148.100	1052.354	611.060	2861.388	323.568	4274.165	813.401	--undefined--	--undefined--
630	0.654	0.00008	4	380.301	139.429	1045.684	521.447	2881.783	376.550	4339.189	1118.801	--undefined--	--undefined--
631	0.655	0.00008	5	382.500	130.528	1041.403	446.985	2904.492	420.457	3871.839	2595.012	4678.032	1189.607
632	0.656	0.00008	5	385.441	122.400	1040.319	387.819	2927.423	448.476	3462.273	2094.762	4781.630	884.251
633	0.657	0.00008	5	389.115	115.862	1042.626	343.510	2949.970	457.348	3298.720	1823.402	4822.611	725.766
634	0.658	0.00008	5	393.411	111.307	1048.313	312.708	2971.661	446.065	3212.615	1704.210	4846.529	638.353
635	0.659	0.00008	5	398.142	108.643	1057.222	293.350	2990.849	418.805	3162.831	1690.312	4862.115	596.448
636	0.660	0.00008	5	403.042	107.370	1068.947	282.978	3006.497	385.276	3133.311	1736.223	4873.656	588.203
637	0.661	0.00008	5	407.780	106.731	1082.722	278.980	3019.415	354.362	3115.156	1796.136	4884.849	607.481
638	0.662	0.00008	5	412.001	105.960	1097.475	278.886	3031.086	330.471	3103.408	1831.486	4899.649	651.580
639	0.663	0.00008	5	415.411	104.552	1112.075	280.698	3042.650	314.542	3096.156	1820.839	4922.485	719.997
640	0.664	0.00008	5	417.843	102.402	1125.610	283.004	3054.668	305.784	3092.951	1764.063	4958.332	812.745
641	0.665	0.00008	5	419.266	99.741	1137.484	284.781	3067.182	302.817	3093.199	1675.391	5012.724	927.926
642	0.666	0.00008	5	419.735	96.966	1147.354	285.076	3079.802	304.319	3095.814	1572.528	5091.750	1059.367
643	0.667	0.00008	5	419.355	94.496	1155.043	282.917	3091.674	309.508	3100.189	1469.689	5203.527	1195.823
644	0.668	0.00008	5	418.251	92.689	1160.498	277.576	3101.391	318.675	3107.099	1374.367	5380.975	1322.587
645	0.669	0.00008	4	416.553	91.803	1163.790	269.009	3106.986	333.604	3118.247	1285.890	--undefined--	--undefined--
646	0.670	0.00008	4	414.378	91.959	1165.109	258.081	3105.957	356.989	3134.861	1197.228	--undefined--	--undefined--
647	0.671	0.00009	4	411.824	93.155	1164.788	246.313	3095.205	389.375	3157.116	1102.750	--undefined--	--undefined--
648	0.672	0.00009	5	408.976	95.311	1163.337	235.347	3072.512	421.854	3183.803	1011.228	5206.713	1454.392
649	0.673	0.00009	5	405.909	98.323	1161.413	226.465	3044.467	435.493	3206.069	947.025	5032.605	1364.581
650	0.674	0.00009	5	402.693	102.047	1159.692	220.323	3025.945	428.401	3208.814	917.622	4898.527	1247.408
651	0.675	0.00009	5	399.386	106.255	1158.768	216.917	3023.415	411.325	3187.846	914.075	4801.277	1126.720
652	0.676	0.00009	5	396.043	110.640	1159.075	215.739	3034.438	384.597	3149.480	935.682	4737.770	1021.883
653	0.677	0.00009	5	392.713	114.857	1160.816	215.985	3050.463	345.688	3104.759	983.890	4701.983	941.187
654	0.678	0.00009	5	389.439	118.600	1163.876	216.747	3059.989	1044.656	3063.885	303.875	4687.259	882.573
655	0.679	0.00009	5	386.257	121.645	1167.820	217.141	3011.431	1094.829	3073.785	269.833	4688.031	838.774
656	0.680	0.00009	5	383.195	123.823	1172.020	216.281	2953.030	1110.964	3081.654	247.489	4700.010	802.950
657	0.681	0.00009	5	380.289	124.951	1175.957	213.117	2884.359	1077.609	3088.693	236.216	4719.529	773.806
658	0.682	0.00009	5	377.620	124.953	1179.655	206.637	2813.573	1001.422	3095.057	232.915	4743.196	758.146
659	0.683	0.00009	5	375.346	124.211	1183.863	196.702	2752.744	910.501	3099.548	235.167	4768.500	768.500
660	0.684	0.00009	5	373.654	123.690	1189.610	184.590	2710.229	833.924	3100.957	244.258	4794.720	818.489
661	0.685	0.00009	5	372.670	124.531	1197.520	172.292	2688.350	786.703	3099.530	263.928	4823.646	920.091
662	0.686	0.00009	5	372.435	127.473	1207.569	161.298	2686.078	769.731	3096.547	297.753	4860.505	1082.047
663	0.687	0.00009	5	372.925	132.560	1219.343	152.116	2700.966	775.129	3093.261	347.863	4915.224	1306.148
664	0.688	0.00009	5	374.076	139.248	1232.379	144.632	2728.386	792.704	3090.120	413.429	5003.372	1580.268
665	0.689	0.00009	5	375.792	146.833	1246.396	138.725	2760.768	820.212	3085.821	487.537	5146.937	1870.403
666	0.690	0.00009	5	377.949	154.945	1261.383	134.595	2790.185	875.281	3075.968	552.827	5417.868	2117.942
667	0.691	0.0002	4	380.397	163.751	1277.518	132.672	2806.745	996.442	3057.833	579.819	--undefined--	--undefined--
668	0.692	0.0002	5	382.964	173.793	1295.018	133.359	2785.299	1197.403	3044.738	560.005	5335.015	2215.382
669	0.693	0.0002	5	385.477	185.674	1314.006	136.830	2711.200	1420.831	3043.432	533.042	5061.522	2026.035
670	0.694	0.0002	5	387.798	199.839	1334.471	142.893	2600.037	1600.674	3048.130	524.138	4899.713	1775.141
671	0.695	0.0002	5	389.866	216.471	1356.225	150.887	2485.924	1706.677	3056.781	543.124	4808.998	1560.464
672	0.696	0.0002	5	391.682	235.417	1378.824	159.717	2397.982	1750.963	3071.399	597.287	4761.449	1426.249
673	0.697	0.0002	5	393.236	256.089	1401.477	168.186	2346.330	1749.047	3098.127	693.245	4740.579	1381.053
674	0.698	0.0002	5	394.393	277.444	1423.121	175.544	2322.612	1695.338	3150.116	829.972	4743.390	1426.722
675	0.699	0.0002	5	394.805	298.262	1442.756	181.845	2301.126	1584.948	3246.180	970.794	4782.193	1569.940
676	0.700	0.0002	5	393.831	317.575	1459.868	187.823	2260.387	1453.445	3379.516	1027.522	4897.867	1812.992
677	0.701	0.0002	5	390.413	334.589	1474.587	194.639	2205.941	1334.650	3498.883	966.854	5222.878	2111.999
678	0.702	0.0002	4	383.040	347.351	1487.461	203.991	2150.165	1219.477	3573.559	857.915	--undefined--	--undefined--
679	0.703	0.0002	4	370.493	350.642	1498.776	218.317	2105.621	1071.037	3612.785	760.511	--undefined--	--undefined--
680	0.704	0.0002	4	353.894	338.749	1508.508	238.277	2093.660	860.909	3629.126	699.261	--undefined--	--undefined--
681	0.705	0.0002	4	337.108	318.058	1522.121	258.877	2121.168	633.602	3619.098	686.945	--undefined--	--undefined--
682	0.706	0.0002	4	323.183	302.026	1550.073	281.356	2155.197	465.402	3562.941	714.783	--undefined--	--undefined--
683	0.707	0.0002	4	313.017	295.989	1588.615	304.246	2174.369	367.660	3468.521	735.074	--undefined--	--undefined--
684	0.708	0.0002	4	305.514	309.413	1623.868	317.429	2183.627	311.813	3383.792	717.368	--undefined--	--undefined--
685	0.709	0.0002	4	297.385	354.991	1646.596	323.282	2188.449	278.691	3328.437	689.437	--undefined--	--undefined--
686	0.710	0.0002	5	282.126	442.700	1656.562	330.903	2190.535	261.078	3292.273	676.062	5063.360	1409.838
687	0.711	0.0002	5	244.492	583.375	1657.284	345.133	2191.054	256.053	3264.422	684.516	4958.170	1323.834
688	0.712	0.0002	5	119.005	795.355	1651.189	366.328	2190.958	262.248	3237.701	715.229	4916.453	1315.890
689	0.713	0.0002	4	1638.867	391.021	2190.863	279.229	3206.495	765.829	4904.756	1369.496	--undefined--	--undefined--
690	0.714	0.0002	4	1621.037	410.669	2191.395	307.016	3166.238	829.410	4907.254	1479.572	--undefined--	--undefined--
691	0.715	0.0002	4	1602.442	414.368	2194.226	345.536	3116.116	889.555	4911.049	1646.496	--undefined--	--undefined--
692	0.716	0.0002	4	1591.627	400.335	2203.974	395.037	3067.170	922.002	4893.158	1846.829	--undefined--	--undefined--
693	0.717	0.0002	4	1593.055	376.012	2229.702	455.404	3044.804	920.231	4811.778	1932.477	--undefined--	--undefined--
694	0.718	0.0002	4	1603.955	344.202	2282.389	513.457	3065.782	895.333	4693.546	1735.047	--undefined--	--undefined--
695	0.719	0.0002	4	1616.850	303.854	2358.310	531.585	3117.303	835.139	4602.160	1423.219	--undefined--	--undefined--
696	0.720	0.0002	4	1625.021	260.114	2431.184	502.530	3167.629	742.775	4535.340	1141.477	--undefined--	--undefined--
697	0.721	0.0002	4	1627.085	220.718	2489.098	461.865	3201.888	649.532	4482.229	916.339	--undefined--	--undefined--
698	0.722	0.0002	5	161.422	842.267	1624.682	188.786	2536.472	430.503	3221.470	573.822	4437.718	743.390
699	0.723	0.0002	5	268.703	626.403	1619.340	163.418	2578.863	412.555	3230.260	519.954	4399.605	613.407
700	0.724	0.0002	5	306.723	470.689	1611.739	142.092	2620.174	406.477	3230.815	487.694	4366.576	517.280
701	0.725	0.0002	5	324.277	355.422	1602.218	122.256	2662.987	409.085	3224.133	476.690	4337.363	446.993
702	0.726	0.0002	5	334.099	269.588	1591.641	102.667	2708.458	416.434	3209.627	487.774	4310.589	395.760
703	0.727	0.0002	5	341.378	206.635	1581.761	84.217	2755.557	423.688	3185.010	522.106	4285.076	357.642
704	0.728	0.0002	5	348.405	162.067	1574.366	68.990	2799.904	424.448	3147.468	576.952	4260.611	327.023
705	0.729	0.0002	5	355.960	131.628	1570.101	58.206	2832.477	412.602	3099.100	637.994	4238.594	299.540
706	0.730	0.0002	5	363.915	110.848	1568.359	51.448	2842.180	392.850	3052.612	674.818	4221.243	274.486
707	0.731	0.0002	5	371.742	96.044	1568.080	47.473	2827.728	376.323	3022.147	665.960	4209.964	254.726
708	0.732	0.0002	5	378.899	85.096	1568.376	45.156	2799.419	355.806	3012.387	630.798	4205.287	243.236
709	0.733	0.0002	5	385.002	77.051	1568.641	43.805	2771.064	323.895	3017.017	594.814	4207.699	240.562
710	0.734	0.0002	5	389.839	71.393	1568.445	43.035	2749.974	287.677	3028.156	561.321	4217.687	244.727
711	0.735	0.0002	5	393.351	67.704	1567.501	42.561	2736.131	254.774	3041.608	525.544	4235.291	252.383
712	0.736	0.0003	5	395.599	65.643	1565.714	42.145	2727.368	227.920	3055.488	484.712	4259.831	260.217
713	0.737	0.0003	5	396.730	64.995	1563.212	41.626	2721.832	206.955	3069.172	439.021	4289.977	265.965
714	0.738	0.0003	5	396.941	65.680	1560.293	40.985	2718.445	190.888	3082.494	390.564	4323.979	268.585
715	0.739	0.0003	5	396.426	67.744	1557.298	40.355	2716.722	178.908	3095.101	342.387	4359.818	267.834
716	0.740	0.0003	5	395.324	71.326	1554.480	39.973	2716.482	170.619	3106.356	297.693	4395.317	263.900
717	0.741	0.0003	5	393.650	76.615	1551.942	40.104	2717.613	165.856	3115.659	259.057	4428.405	257.374
718	0.742	0.0003	5	391.244	83.792	1549.637	40.994	2719.971	164.434	3122.735	227.868	4457.520	249.285
719	0.743	0.0003	5	387.724	92.923	1547.420	42.869	2723.348	166.021	3127.664	204.312	4481.918	240.942
720	0.744	0.0003	5	382.517	103.781	1545.095	45.961	2727.471	170.141	3130.769	187.816	4501.705	233.703
721	0.745	0.0003	5	375.014	115.562	1542.472	50.599	2732.076	176.273	3132.571	177.655	4517.655	228.933
722	0.746	0.0003	5	365.010	126.636	1539.456	57.394	2737.127	184.042	3133.961	173.676	4530.910	228.448
723	0.747	0.0003	5	353.388	134.974	1536.269	67.784	2743.353	193.635	3136.895	177.498	4542.521	235.937
724	0.748	0.0003	5	342.462	140.388	1534.186	85.519	2753.183	206.375	3146.379	194.877	4552.246	260.420
725	0.749	0.0003	5	335.152	147.447	1537.893	119.862	2770.207	224.985	3173.724	236.736	4555.956	320.953
726	0.750	0.0003	5	333.531	162.773	1560.364	186.063	2791.805	260.628	3228.205	300.080	4545.461	433.361
727	0.751	0.0003	5	337.965	187.916	1617.758	274.610	2811.580	347.630	3282.584	346.075	4518.992	553.824
728	0.752	0.0004	5	346.685	230.386	1683.581	314.734	2831.135	485.628	3304.792	352.022	4488.695	605.279
729	0.753	0.0004	5	357.069	315.137	1712.175	306.275	2839.413	616.016	3306.455	331.792	4465.743	600.686
730	0.754	0.0004	5	364.940	455.593	1712.451	297.392	2828.306	724.825	3301.958	308.260	4448.971	588.378
731	0.755	0.0004	5	365.113	642.703	1702.106	296.071	2801.623	825.516	3296.025	288.533	4435.128	582.470
732	0.756	0.0004	5	356.732	848.202	1689.324	295.788	2764.854	918.539	3290.783	272.798	4423.269	579.663
733	0.757	0.0004	5	345.214	1035.587	1678.188	291.718	2724.463	997.623	3287.024	261.056	4413.555	575.417
734	0.758	0.0004	5	333.933	1180.085	1670.513	283.044	2685.836	1062.099	3284.487	253.184	4405.788	568.050
735	0.759	0.0004	5	317.179	1277.255	1666.510	270.743	2651.190	1117.052	3282.603	248.834	4399.209	557.797
736	0.760	0.0004	5	286.486	1332.553	1665.872	255.829	2620.888	1168.758	3280.941	247.854	4392.966	545.292
737	0.761	0.0004	5	239.234	1348.934	1668.416	238.947	2595.593	1222.777	3279.268	250.579	4386.339	530.892
738	0.762	0.0004	5	184.215	1322.907	1674.149	220.335	2577.431	1283.819	3277.484	257.984	4378.641	514.470
739	0.763	0.0004	5	151.302	1247.387	1683.058	199.832	2570.474	1354.764	3275.524	271.980	4368.964	495.172
740	0.764	0.0004	5	175.717	1118.759	1694.792	177.134	2580.630	1432.924	3273.268	296.086	4355.956	470.987
741	0.765	0.0004	5	233.975	944.891	1708.472	152.536	2613.988	1502.295	3270.471	336.923	4337.953	438.414
742	0.766	0.0004	5	288.181	747.501	1722.911	127.773	2672.360	1522.896	3267.044	407.725	4314.131	393.430
743	0.767	0.0004	5	324.090	555.115	1737.216	105.758	2745.719	1423.409	3266.033	537.895	4286.518	335.585
744	0.768	0.0004	5	342.569	392.131	1751.121	88.866	2787.704	1121.821	3299.813	782.716	4259.920	272.554
745	0.769	0.0004	5	350.704	271.096	1764.748	77.490	2726.677	788.702	3428.928	1001.675	4238.216	216.136
746	0.770	0.0004	5	355.367	191.120	1778.316	70.627	2661.342	586.951	3549.491	1097.624	4222.470	172.632
747	0.771	0.0004	5	360.118	142.614	1791.945	67.306	2622.522	466.010	3625.688	1158.145	4212.229	141.727
748	0.772	0.0004	5	365.638	114.204	1805.496	66.675	2603.618	397.760	3662.217	1208.465	4206.083	121.024
749	0.773	0.0004	5	371.379	97.111	1818.615	67.556	2596.539	360.817	3671.961	1255.404	4202.177	107.858
750	0.774	0.0004	5	376.648	86.007	1830.839	68.710	2595.960	340.373	3666.979	1301.787	4199.122	99.764
751	0.775	0.0004	5	380.996	78.101	1841.617	69.291	2598.732	327.929	3654.715	1347.074	4196.172	94.827
752	0.776	0.0004	5	384.237	72.061	1850.401	69.014	2602.766	319.446	3638.699	1388.487	4192.986	91.656
753	0.777	0.0004	5	386.372	67.297	1856.793	68.028	2606.531	313.640	3620.166	1423.040	4189.443	89.252
754	0.778	0.0004	5	387.500	63.556	1860.666	66.687	2608.994	310.722	3599.160	1448.928	4185.571	86.970
755	0.779	0.0004	5	387.747	60.728	1862.173	65.367	2609.641	311.507	3575.219	1465.825	4181.507	84.563
756	0.780	0.0004	5	387.232	58.772	1861.676	64.396	2608.419	316.854	3547.807	1474.588	4177.458	82.187
757	0.781	0.0004	5	386.048	57.690	1859.637	64.048	2605.664	327.384	3516.568	1476.922	4173.652	80.303
758	0.782	0.0004	5	384.260	57.511	1856.518	64.577	2602.046	343.287	3481.423	1475.177	4170.333	79.505
759	0.783	0.0004	5	381.911	58.275	1852.710	66.227	2598.509	364.181	3442.584	1471.913	4167.795	80.385
760	0.784	0.0004	5	379.034	59.979	1848.515	69.243	2596.094	389.061	3400.504	1468.711	4166.484	83.397
761	0.785	0.0004	5	375.678	62.521	1844.158	73.889	2595.504	416.591	3355.714	1463.727	4167.114	88.610
762	0.786	0.0004	5	371.925	65.649	1839.851	80.499	2596.465	445.973	3308.558	1448.644	4170.684	95.133
763	0.787	0.0004	5	367.918	68.952	1835.912	89.528	2597.213	478.110	3259.441	1408.730	4177.993	100.398
764	0.788	0.0004	5	363.872	71.980	1832.977	101.502	2594.560	515.501	3210.856	1331.426	4188.391	100.745
765	0.789	0.0004	5	360.066	74.424	1832.237	116.713	2584.451	559.028	3170.053	1219.460	4199.125	94.703
766	0.790	0.0004	5	356.794	76.171	1835.474	134.655	2564.017	602.883	3146.200	1095.247	4207.286	85.158
767	0.791	0.0004	5	354.286	77.234	1844.641	153.353	2536.718	636.313	3141.421	991.783	4211.997	76.515
768	0.792	0.0004	5	352.641	77.656	1860.849	169.115	2512.915	655.963	3149.430	933.813	4213.958	71.538
769	0.793	0.0004	5	351.817	77.464	1883.165	177.667	2501.960	665.582	3164.752	931.022	4214.078	71.237
770	0.794	0.0004	5	351.678	76.671	1908.432	176.931	2506.993	663.673	3187.679	984.716	4212.884	75.809
771	0.795	0.0004	5	352.059	75.335	1932.970	168.999	2523.301	642.858	3223.617	1088.472	4210.551	85.130
772	0.796	0.0004	5	352.832	73.591	1954.668	158.520	2540.754	602.890	3278.652	1221.795	4207.127	98.708
773	0.797	0.0004	5	353.921	71.638	1973.340	149.531	2552.113	555.822	3351.741	1353.651	4202.784	115.421
774	0.798	0.0004	5	355.302	69.671	1989.837	144.255	2556.629	514.289	3433.393	1459.465	4198.020	133.352
775	0.799	0.0005	5	356.976	67.814	2005.317	143.571	2556.288	484.504	3511.777	1529.521	4193.698	149.930
776	0.800	0.0005	5	358.946	66.101	2020.984	147.655	2552.899	468.316	3577.497	1566.278	4190.846	162.407
777	0.801	0.0005	5	361.203	64.493	2038.020	156.192	2547.566	466.058	3625.330	1579.705	4190.273	168.582
778	0.802	0.0005	5	363.716	62.923	2057.485	168.163	2540.916	477.929	3654.261	1582.899	4192.225	167.587
779	0.803	0.0005	5	366.417	61.333	2080.018	181.367	2533.467	504.300	3666.443	1588.312	4196.355	160.314
780	0.804	0.0005	5	369.210	59.711	2105.264	192.197	2526.124	545.109	3665.751	1605.798	4202.016	149.024
781	0.805	0.0005	5	371.974	58.114	2131.313	196.670	2520.739	598.251	3656.722	1643.199	4208.585	136.330
782	0.806	0.0005	5	374.585	56.658	2155.073	193.124	2520.124	657.535	3644.159	1708.805	4215.562	124.269
783	0.807	0.0005	5	376.933	55.482	2174.122	183.915	2526.703	712.817	3633.269	1813.594	4222.491	113.959
784	0.808	0.0005	5	378.940	54.682	2188.207	173.259	2540.639	753.850	3630.567	1969.958	4228.840	105.709
785	0.809	0.0005	5	380.552	54.258	2198.623	164.423	2558.664	774.684	3645.205	2183.453	4233.961	99.317
786	0.810	0.0005	5	381.726	54.095	2206.984	159.366	2574.421	777.087	3687.388	2437.415	4237.208	94.357
787	0.811	0.0005	5	382.424	54.009	2214.683	159.376	2581.748	770.287	3760.174	2682.548	4238.220	90.432
788	0.812	0.0005	5	382.621	53.856	2222.866	165.370	2577.885	763.467	3850.949	2852.560	4237.175	87.334
789	0.813	0.0005	5	382.322	53.616	2232.528	177.793	2563.294	759.205	3936.523	2906.584	4234.712	85.048
790	0.814	0.0005	5	381.562	53.393	2244.566	196.226	2540.445	754.891	4000.714	2859.354	4231.557	83.595
791	0.815	0.0005	5	380.398	53.337	2259.644	218.619	2513.142	748.447	4042.304	2762.820	4228.220	82.877
792	0.816	0.0005	5	378.887	53.567	2277.672	240.485	2485.823	742.284	4066.959	2666.210	4224.955	82.638
793	0.817	0.0005	5	377.080	54.126	2296.921	255.585	2463.001	742.274	4079.054	2595.729	4221.879	82.548
794	0.818	0.0007	5	375.013	54.977	2313.981	259.966	2448.574	752.396	4079.683	2554.801	4219.105	82.360
795	0.819	0.0007	5	372.710	56.040	2326.340	255.602	2443.525	771.105	4067.485	2531.028	4216.789	82.019
796	0.820	0.0007	5	370.189	57.212	2334.597	247.221	2444.668	794.965	4040.523	2504.405	4215.111	81.669
797	0.821	0.0007	5	367.462	58.381	2341.057	238.165	2447.136	822.106	3999.055	2456.526	4214.221	81.541
798	0.822	0.0007	5	364.540	59.437	2347.775	230.054	2447.070	850.827	3947.686	2379.437	4214.193	81.800
799	0.823	0.0007	5	361.440	60.285	2355.880	223.518	2442.737	877.383	3894.561	2280.046	4215.007	82.443
800	0.824	0.0007	5	358.183	60.860	2365.597	218.733	2434.767	895.455	3847.774	2176.837	4216.567	83.282
801	0.825	0.0007	5	354.795	61.136	2376.434	215.889	2425.746	897.494	3812.241	2091.043	4218.707	84.020
802	0.826	0.0007	5	351.305	61.116	2387.434	215.611	2418.948	876.910	3789.422	2038.214	4221.207	84.362
803	0.827	0.0007	5	347.739	60.825	2397.492	219.255	2416.625	829.799	3779.094	2023.859	4223.774	84.109
804	0.828	0.0007	5	344.130	60.305	2405.666	229.120	2418.959	755.849	3780.970	2042.097	4226.020	83.238
805	0.829	0.0007	5	340.508	59.597	2411.274	249.268	2424.471	657.551	3794.946	2075.345	4227.491	81.961
806	0.830	0.0007	5	336.905	58.716	2412.760	290.960	2432.546	532.820	3820.214	2096.342	4227.825	80.727
807	0.831	0.0007	5	333.355	57.638	2376.050	352.495	2476.314	391.550	3854.465	2076.308	4227.066	80.159
808	0.832	0.0007	5	329.894	56.342	2342.850	328.859	2514.624	343.129	3894.237	1998.544	4225.891	80.921
809	0.833	0.0007	5	326.565	54.864	2324.072	302.959	2538.023	305.259	3935.851	1867.618	4225.453	83.552
810	0.834	0.0007	5	323.412	53.313	2311.832	279.744	2555.806	272.110	3975.769	1705.454	4226.804	88.273
811	0.835	0.0007	5	320.479	51.838	2303.923	260.074	2570.760	242.540	4010.852	1538.835	4230.383	94.810
812	0.836	0.0007	5	317.810	50.571	2299.107	244.929	2583.589	216.278	4039.089	1388.740	4235.936	102.377
813	0.837	0.0007	5	315.453	49.588	2296.173	235.221	2594.222	193.332	4060.023	1266.398	4242.765	109.938
814	0.838	0.0007	5	313.469	48.902	2293.818	231.429	2602.537	173.631	4074.492	1174.308	4250.032	116.678
815	0.839	0.0007	5	311.926	48.477	2290.771	233.545	2608.694	156.867	4084.125	1108.645	4256.994	122.501
816	0.840	0.0007	5	310.891	48.244	2285.920	241.140	2613.195	142.557	4090.966	1061.229	4263.137	128.280
817	0.841	0.0007	5	310.403	48.118	2278.436	253.394	2616.814	130.211	4097.248	1021.294	4268.177	135.740
818	0.842	0.0007	5	310.456	48.014	2267.920	269.113	2620.468	119.501	4105.139	977.926	4271.911	147.066
819	0.843	0.0007	5	310.987	47.881	2254.544	286.880	2625.060	110.326	4116.361	923.427	4273.960	164.386
820	0.844	0.0007	5	311.880	47.722	2239.046	305.360	2631.345	102.727	4131.981	856.242	4273.469	189.122
821	0.845	0.0007	5	312.984	47.585	2222.492	323.587	2639.821	96.701	4152.716	781.284	4268.808	221.111
822	0.846	0.0007	5	314.144	47.529	2205.849	340.975	2650.656	92.054	4179.762	707.929	4257.207	257.057
823	0.847	0.0007	5	315.223	47.576	2189.649	357.007	2663.639	88.366	4214.883	651.565	4235.214	285.138
824	0.848	0.0007	5	316.121	47.695	2174.027	370.858	2678.188	85.130	4209.102	281.908	4250.419	635.260
825	0.849	0.0007	5	316.787	47.820	2159.119	381.229	2693.419	81.984	4194.181	258.507	4270.231	644.801
826	0.850	0.0007	5	317.219	47.879	2145.546	386.545	2708.329	78.915	4189.159	236.510	4275.448	655.275
827	0.851	0.0007	5	317.459	47.834	2134.559	385.477	2722.028	76.274	4190.200	220.435	4270.367	660.467
828	0.852	0.0007	5	317.587	47.693	2127.609	377.591	2733.935	74.596	4195.491	209.690	4257.782	661.204
829	0.853	0.0007	5	317.701	47.521	2125.577	363.705	2743.857	74.367	4204.052	202.487	4240.018	660.298
830	0.854	0.0007	5	317.907	47.414	2128.255	345.673	2751.951	75.901	4214.946	197.104	4219.548	659.905
831	0.855	0.0007	5	318.304	47.472	2134.485	325.757	2758.596	79.366	4198.871	660.123	4227.157	192.829
832	0.856	0.0007	5	318.983	47.781	2142.766	305.996	2764.257	84.905	4179.825	659.431	4239.978	190.035
833	0.857	0.0007	5	320.031	48.409	2151.814	287.863	2769.380	92.767	4163.120	656.309	4253.193	189.315
834	0.858	0.0007	5	321.536	49.405	2160.835	272.225	2774.309	103.420	4148.449	650.259	4266.873	190.815
835	0.859	0.0007	5	323.595	50.808	2169.523	259.493	2779.223	117.637	4134.852	641.620	4281.118	194.186
836	0.860	0.0007	5	326.306	52.644	2177.956	249.816	2784.051	136.585	4121.089	630.848	4295.948	198.779
837	0.861	0.0007	5	329.766	54.923	2186.475	243.255	2788.395	161.893	4105.971	617.916	4311.278	203.788
838	0.862	0.0007	5	334.046	57.638	2195.585	239.886	2791.445	195.648	4088.672	602.166	4326.893	208.298
839	0.863	0.001	5	339.168	60.770	2205.841	239.819	2791.942	240.079	4069.020	582.535	4342.427	211.340
840	0.864	0.001	5	345.076	64.291	2217.689	243.130	2788.295	296.573	4047.670	557.986	4357.417	212.025
841	0.865	0.001	5	351.616	68.149	2231.207	249.704	2779.078	363.660	4026.071	528.139	4371.439	209.737
842	0.866	0.001	5	358.528	72.230	2245.716	259.169	2764.170	434.482	4006.137	494.114	4384.230	204.310
843	0.867	0.001	5	365.463	76.352	2259.455	271.284	2746.154	496.369	3989.508	459.015	4395.724	196.120
844	0.868	0.001	5	372.004	80.330	2269.757	286.568	2730.342	535.647	3976.718	426.904	4406.029	185.954
845	0.869	0.001	5	377.704	84.116	2273.952	305.955	2722.361	545.639	3967.065	400.712	4415.407	174.724
846	0.870	0.001	5	382.125	87.842	2270.293	329.266	2725.334	530.168	3959.294	381.161	4424.219	163.235
847	0.871	0.001	5	384.891	91.700	2258.288	354.704	2739.145	499.237	3952.281	367.303	4432.835	152.132
848	0.872	0.001	5	385.767	95.776	2238.249	379.976	2761.687	462.153	3945.305	357.492	4441.573	141.885
849	0.873	0.001	5	384.768	99.916	2210.482	402.727	2790.531	424.280	3938.047	349.968	4450.666	132.757
850	0.874	0.001	5	382.239	103.676	2175.207	419.506	2823.665	387.895	3930.503	343.167	4460.255	124.800
851	0.875	0.001	5	378.843	106.351	2133.577	425.268	2859.244	354.285	3922.819	336.115	4470.339	117.953
852	0.876	0.001	5	375.430	107.185	2089.083	415.355	2895.030	325.275	3914.977	329.019	4480.699	112.227
853	0.877	0.001	5	372.853	105.833	2047.736	389.709	2928.050	303.729	3906.436	323.626	4490.847	107.899
854	0.878	0.001	5	371.773	102.899	2015.781	355.243	2954.805	292.909	3896.043	322.592	4500.098	105.511
855	0.879	0.001	5	372.527	99.850	1996.308	322.308	2971.967	294.988	3882.567	327.604	4507.793	105.575
856	0.880	0.001	5	375.105	98.107	1987.996	298.473	2977.197	309.380	3865.674	337.488	4513.545	108.221
857	0.881	0.001	5	379.253	98.222	1986.734	286.029	2969.846	331.681	3846.703	348.319	4517.311	113.171
858	0.882	0.001	5	384.628	99.853	1987.967	283.574	2951.533	354.304	3828.388	356.198	4519.262	120.063
859	0.883	0.001	5	390.923	102.277	1988.077	288.351	2926.281	369.718	3813.346	360.242	4519.602	128.663
860	0.884	0.001	5	397.913	104.877	1984.803	297.628	2899.426	374.490	3802.621	362.603	4518.539	138.788
861	0.885	0.001	5	405.448	107.355	1977.095	309.217	2875.610	370.285	3795.628	366.173	4516.371	150.116
862	0.886	0.001	5	413.408	109.660	1964.754	321.500	2857.468	361.338	3791.080	372.798	4513.564	162.159
863	0.887	0.001	5	421.660	111.819	1948.093	333.205	2845.699	351.533	3787.817	382.922	4510.684	174.423
864	0.888	0.001	5	430.052	113.819	1927.776	343.190	2839.799	343.138	3785.129	395.967	4508.255	186.597
865	0.889	0.001	5	438.431	115.573	1904.811	350.456	2838.630	336.882	3782.713	410.834	4506.628	198.565
866	0.890	0.001	5	446.689	116.976	1880.564	354.406	2840.663	332.514	3780.445	426.289	4505.947	210.261
867	0.891	0.001	5	454.792	117.968	1856.648	355.103	2844.063	329.363	3778.117	441.213	4506.183	221.486
868	0.892	0.001	5	462.795	118.567	1834.660	353.208	2846.895	326.777	3775.273	454.748	4507.183	231.873
869	0.893	0.001	5	470.820	118.829	1815.821	349.502	2847.571	324.353	3771.262	466.419	4508.711	241.080
870	0.894	0.001	5	479.011	118.758	1800.683	344.310	2845.337	321.939	3765.486	476.234	4510.488	249.098
871	0.895	0.001	5	487.502	118.258	1789.055	337.287	2840.443	319.514	3757.645	484.689	4512.218	256.457
872	0.896	0.001	5	496.391	117.188	1780.193	327.768	2833.859	317.110	3747.810	492.680	4513.617	264.182
873	0.897	0.001	5	505.737	115.455	1773.149	315.367	2826.763	314.817	3736.324	501.394	4514.423	273.577
874	0.898	0.001	5	515.554	113.081	1767.085	300.376	2820.135	312.844	3723.672	512.203	4514.439	285.984
875	0.899	0.001	5	525.799	110.214	1761.459	283.755	2814.592	311.564	3710.386	526.511	4513.588	302.574
876	0.900	0.001	5	536.356	107.078	1756.020	266.811	2810.392	311.525	3696.978	545.495	4512.011	324.114
877	0.901	0.001	5	547.025	103.913	1750.690	250.807	2807.491	313.373	3683.853	569.728	4510.141	350.657
878	0.902	0.001	5	557.532	100.919	1745.401	236.668	2805.614	317.736	3671.149	598.844	4508.656	381.211
879	0.903	0.001	5	567.562	98.214	1739.985	224.874	2804.343	325.100	3658.547	631.506	4508.204	413.673
880	0.904	0.001	5	576.811	95.838	1734.153	215.511	2803.235	335.674	3645.229	665.852	4508.978	445.322
881	0.905	0.001	5	585.046	93.770	1727.540	208.360	2801.951	349.181	3630.132	700.130	4510.468	473.797
882	0.906	0.001	5	592.149	91.943	1719.764	202.959	2800.274	364.551	3612.374	732.888	4511.692	497.857
883	0.907	0.001	5	598.126	90.230	1710.477	198.619	2797.935	379.745	3591.627	762.427	4511.821	517.375
884	0.908	0.001	5	603.078	88.448	1699.430	194.451	2794.358	391.920	3568.413	785.984	4510.815	532.903
885	0.909	0.001	5	607.168	86.386	1686.586	189.460	2788.546	398.019	3544.429	799.572	4509.865	545.570
886	0.910	0.001	5	610.585	83.865	1672.281	182.734	2779.418	395.567	3522.654	799.258	4511.637	557.436
887	0.911	0.001	5	613.528	80.821	1657.290	173.709	2766.518	383.442	3506.590	783.200	4520.289	571.303
888	0.912	0.001	5	616.182	77.311	1642.667	162.361	2750.433	362.617	3498.220	752.321	4540.699	588.388
889	0.913	0.001	5	618.679	73.448	1629.361	149.174	2732.422	336.423	3495.927	709.426	4575.772	604.167
890	0.914	0.001	5	621.084	69.348	1617.940	134.928	2713.854	309.430	3495.375	659.318	4622.542	608.418
891	0.915	0.001	5	623.413	65.187	1608.636	120.535	2696.081	285.612	3493.298	608.512	4672.240	594.373
892	0.916	0.001	5	625.669	61.233	1601.459	106.900	2680.293	267.531	3489.149	562.562	4716.372	566.081
893	0.917	0.001	5	627.830	57.747	1596.222	94.740	2667.153	256.609	3483.429	524.462	4751.358	533.753
894	0.918	0.001	5	629.847	54.890	1592.574	84.477	2656.680	253.608	3476.193	495.307	4777.727	505.964
895	0.919	0.001	5	631.657	52.728	1590.082	76.283	2648.436	258.994	3466.960	475.332	4797.555	487.051
896	0.920	0.001	5	633.194	51.275	1588.319	70.190	2641.783	273.251	3455.093	464.441	4812.931	478.151
897	0.921	0.001	5	634.408	50.540	1586.906	66.173	2636.043	297.102	3440.011	462.282	4825.467	478.694
898	0.922	0.001	5	635.276	50.544	1585.526	64.215	2630.580	331.695	3421.207	468.028	4836.259	487.295
899	0.923	0.001	5	635.813	51.317	1583.917	64.335	2624.796	378.772	3398.235	479.946	4845.966	502.207
900	0.924	0.001	5	636.071	52.891	1581.844	66.608	2618.000	440.836	3370.873	494.748	4854.913	521.691
901	0.925	0.001	5	636.133	55.286	1579.081	71.163	2609.055	521.134	3339.605	507.008	4863.219	544.483
902	0.926	0.001	5	636.094	58.501	1575.378	78.168	2595.699	622.808	3306.502	509.450	4870.931	570.277
903	0.927	0.001	5	636.034	62.504	1570.439	87.777	2573.960	745.918	3275.999	495.728	4878.171	599.932
904	0.928	0.001	5	635.983	67.223	1563.885	100.049	2539.379	882.583	3253.745	465.709	4885.227	635.190
905	0.929	0.001	5	635.898	72.534	1555.214	114.826	2490.828	1016.538	3242.745	426.778	4892.615	678.030
906	0.930	0.001	5	635.637	78.246	1543.766	131.573	2432.486	1130.798	3241.455	387.248	4901.118	730.074
907	0.931	0.001	5	634.953	84.102	1528.748	149.188	2371.667	1214.111	3246.147	351.472	4911.821	792.448
908	0.932	0.001	5	633.516	89.789	1509.435	165.816	2316.188	1262.701	3253.380	320.662	4926.170	866.065
909	0.933	0.001	5	630.968	95.002	1485.650	178.856	2272.467	1281.002	3260.836	294.785	4946.056	951.948
910	0.934	0.001	5	627.011	99.513	1458.338	185.586	2243.914	1280.983	3267.306	273.551	4973.911	1051.102
911	0.935	0.001	5	621.478	103.278	1429.714	184.518	2230.282	1278.474	3272.411	256.756	5012.728	1163.762
912	0.936	0.001	5	614.358	106.503	1402.520	176.454	2228.658	1288.305	3276.271	244.357	5066.078	1288.414
913	0.937	0.001	5	605.744	109.661	1378.907	164.020	2235.390	1321.451	3279.197	236.410	5139.066	1421.781
914	0.938	0.001	5	595.749	113.394	1359.856	150.139	2247.659	1384.699	3281.494	232.939	5245.636	1561.129
915	0.939	0.001	4	584.417	118.347	1345.294	136.900	2264.286	1480.813	3283.371	233.797	--undefined--	--undefined--
916	0.940	0.001	4	571.665	125.006	1334.515	125.328	2285.933	1607.472	3284.963	238.643	--undefined--	--undefined--
917	0.941	0.001	4	557.247	133.560	1326.550	115.696	2314.839	1754.459	3286.403	247.092	--undefined--	--undefined--
918	0.942	0.001	4	540.741	143.793	1320.424	107.910	2353.781	1899.580	3287.909	258.962	--undefined--	--undefined--
919	0.943	0.001	4	521.621	154.954	1315.305	101.719	2403.405	2006.019	3289.839	274.504	--undefined--	--undefined--
920	0.944	0.001	4	499.438	165.584	1310.572	96.776	2457.933	2029.656	3292.699	294.539	--undefined--	--undefined--
921	0.945	0.001	4	474.216	173.429	1305.843	92.639	2505.494	1944.350	3297.184	320.616	--undefined--	--undefined--
922	0.946	0.001	4	446.952	175.822	1300.989	88.869	2539.673	1762.872	3304.352	355.358	--undefined--	--undefined--
923	0.947	0.001	4	419.884	170.892	1296.140	85.287	2566.703	1521.648	3316.246	403.036	--undefined--	--undefined--
924	0.948	0.001	4	396.000	159.067	1291.604	82.314	2595.469	1253.326	3337.619	469.094	--undefined--	--undefined--
925	0.949	0.001	4	377.848	143.326	1287.704	81.055	2624.825	979.483	3378.454	552.714	--undefined--	--undefined--
926	0.950	0.001	4	366.543	127.543	1284.670	82.993	2644.380	727.580	3448.421	628.652	--undefined--	--undefined--
927	0.951	0.001	4	361.625	114.450	1282.718	89.511	2652.056	529.892	3538.848	661.162	--undefined--	--undefined--
928	0.952	0.001	4	361.618	104.934	1282.228	101.574	2654.263	393.952	3629.518	649.311	--undefined--	--undefined--
929	0.953	0.0008	4	364.750	98.774	1283.851	119.411	2655.144	308.711	3708.534	617.688	--undefined--	--undefined--
930	0.954	0.0008	4	369.502	95.672	1288.416	141.975	2656.090	260.036	3773.686	587.728	--undefined--	--undefined--
931	0.955	0.0008	4	374.912	95.716	1296.330	166.865	2657.444	236.569	3826.572	568.546	--undefined--	--undefined--
932	0.956	0.0007	4	380.701	99.322	1306.917	192.070	2659.278	230.917	3868.800	560.820	--undefined--	--undefined--
933	0.957	0.0007	4	387.269	106.975	1318.942	218.214	2661.680	238.992	3901.191	562.548	--undefined--	--undefined--
934	0.958	0.0007	4	395.477	118.827	1331.932	248.014	2664.865	258.690	3924.686	572.196	--undefined--	--undefined--
935	0.959	0.0006	4	406.263	134.331	1346.742	283.680	2669.233	288.464	3941.490	589.444	--undefined--	--undefined--
936	0.960	0.0006	4	420.323	152.040	1365.236	324.768	2675.426	325.996	3955.501	614.577	--undefined--	--undefined--
937	0.961	0.0006	4	437.940	169.584	1389.578	366.765	2684.331	367.165	3971.636	646.887	--undefined--	--undefined--
938	0.962	0.0004	4	458.859	183.799	1420.863	400.604	2696.717	405.835	3994.175	682.278	--undefined--	--undefined--
939	0.963	0.0004	4	482.006	191.336	1457.131	415.814	2712.444	435.579	4024.430	711.799	--undefined--	--undefined--
940	0.964	0.0004	4	505.344	190.254	1493.284	408.188	2730.111	453.724	4058.781	724.695	--undefined--	--undefined--
941	0.965	0.00009	4	526.648	181.632	1524.569	383.642	2748.241	464.222	4089.612	715.919	--undefined--	--undefined--
942	0.966	0.00009	4	544.717	168.751	1549.461	352.468	2766.734	475.226	4109.942	690.111	--undefined--	--undefined--
943	0.967	0.00009	4	559.504	154.774	1568.936	322.223	2786.683	493.976	4117.734	657.175	--undefined--	--undefined--
944	0.968	0.00002	4	571.354	141.803	1584.551	296.075	2809.200	524.118	4116.387	625.951	--undefined--	--undefined--
945	0.969	0.00002	4	580.430	131.259	1597.504	274.683	2834.711	566.181	4112.315	601.936	--undefined--	--undefined--
946	0.970	0.00002	4	586.620	124.261	1608.537	258.126	2862.757	619.083	4111.860	587.651	--undefined--	--undefined--
947	0.971	0.00002	4	589.647	121.533	1618.089	246.681	2891.653	681.145	4118.873	582.745	--undefined--	--undefined--
948	0.972	0.000007	4	589.159	123.292	1626.471	240.859	2918.287	750.548	4133.595	584.085	--undefined--	--undefined--
949	0.973	0.000007	4	584.824	129.389	1634.099	241.105	2939.373	825.275	4153.177	587.666	--undefined--	--undefined--
950	0.974	0.000007	4	576.531	139.379	1641.586	247.260	2954.203	901.929	4173.530	592.131	--undefined--	--undefined--
951	0.975	0.000002	4	564.682	152.191	1649.539	258.104	2966.457	974.084	4191.303	600.615	--undefined--	--undefined--
952	0.976	0.000002	4	550.544	165.761	1658.245	271.488	2982.680	1031.775	4205.043	618.683	--undefined--	--undefined--
953	0.977	0.000002	4	536.588	177.394	1667.552	285.174	3007.790	1062.596	4215.495	649.957	--undefined--	--undefined--
954	0.978	0.000002	4	526.339	185.016	1677.083	297.967	3040.751	1055.549	4225.212	692.272	--undefined--	--undefined--
955	0.979	0.000002	4	523.168	187.998	1686.585	310.281	3074.159	1008.687	4237.099	736.073	--undefined--	--undefined--
956	0.980	0.000002	4	528.516	186.274	1696.141	323.715	3099.319	934.544	4251.947	767.497	--undefined--	--undefined--
957	0.981	0.000002	4	540.888	179.578	1706.192	340.110	3112.501	854.244	4267.463	777.128	--undefined--	--undefined--
958	0.982	0.000002	4	556.567	168.498	1717.504	360.979	3115.743	785.443	4280.865	766.746	--undefined--	--undefined--
959	0.983	0.000002	4	571.603	155.197	1731.037	387.672	3113.171	737.078	4291.789	746.719	--undefined--	--undefined--
960	0.984	0.000002	4	583.362	142.270	1747.649	421.867	3107.932	710.875	4302.311	728.728	--undefined--	--undefined--
961	0.985	0.000002	4	590.823	131.499	1767.802	465.713	3101.073	703.056	4315.405	720.282	--undefined--	--undefined--
962	0.986	0.0000010	4	594.155	123.707	1791.473	521.287	3091.519	704.519	4333.457	722.135	--undefined--	--undefined--
963	0.987	0.0000010	4	594.122	119.178	1818.153	589.652	3076.902	701.824	4357.038	728.436	--undefined--	--undefined--
964	0.988	0.0000010	4	591.563	117.838	1846.647	670.198	3055.510	681.841	4384.006	730.638	--undefined--	--undefined--
965	0.989	0.0000006	4	587.097	119.215	1874.893	760.583	3028.517	638.728	4410.219	724.247	--undefined--	--undefined--
966	0.990	0.0000006	4	581.057	122.635	1900.516	856.814	3000.037	577.161	4432.257	712.109	--undefined--	--undefined--
967	0.991	0.0000006	4	573.517	127.596	1922.071	953.659	2974.426	508.769	4449.375	700.903	--undefined--	--undefined--
968	0.992	0.0000006	4	564.306	133.916	1939.897	1046.811	2953.732	445.613	4463.144	696.461	--undefined--	--undefined--
969	0.993	0.0000006	4	552.996	141.603	1955.665	1136.879	2937.437	395.845	4476.253	702.381	--undefined--	--undefined--
970	0.994	0.0000005	4	538.830	150.524	1970.781	1233.003	2923.640	363.170	4491.411	720.924	--undefined--	--undefined--
971	0.995	0.00008	4	520.676	159.884	1983.968	1355.392	2909.988	348.454	4510.133	754.727	--undefined--	--undefined--
972	0.996	0.00008	4	497.280	167.358	1985.512	1541.142	2893.754	350.975	4531.727	810.083	--undefined--	--undefined--
973	0.997	0.00009	4	468.352	168.542	1927.485	1859.083	2871.632	367.128	4553.622	905.278	--undefined--	--undefined--
974	0.998	0.00009	4	436.295	159.434	1586.720	2029.382	2841.771	386.027	4573.130	1102.037	--undefined--	--undefined--
975	0.999	0.00009	5	405.750	141.730	1456.277	1491.126	2810.053	393.920	4391.144	1772.237	5154.644	1569.973
976	1.000	0.00009	5	380.704	122.698	1479.368	1163.267	2787.285	393.851	4055.014	1328.753	5072.885	967.390
977	1.001	0.00009	5	363.236	109.640	1520.509	958.835	2777.362	399.218	3994.313	1036.022	5072.863	820.605
978	1.002	0.00009	5	353.968	106.546	1554.743	836.310	2778.082	416.773	3981.367	895.525	5083.733	781.081
979	1.003	0.00009	5	352.473	114.303	1578.167	774.599	2785.553	445.882	3984.710	846.767	5105.299	808.494
980	1.004	0.00009	5	357.669	132.754	1598.012	755.402	2794.886	481.605	3995.186	846.843	5137.267	879.394
981	1.005	0.00009	5	368.433	163.931	1625.875	766.699	2797.957	517.686	4002.237	856.298	5159.768	952.806
982	1.006	0.00009	5	384.186	216.804	1669.038	798.788	2785.458	546.578	3991.742	847.076	5117.249	960.050
983	1.007	0.00009	5	404.815	314.396	1713.166	831.620	2758.403	558.238	3960.029	820.524	5005.449	865.539
984	1.008	0.00009	5	428.782	501.769	1721.247	859.675	2725.309	551.047	3914.430	793.578	4891.711	723.899
985	1.009	0.00009	5	450.932	814.523	1672.600	877.245	2692.009	530.962	3866.229	771.214	4809.543	603.097
986	1.010	0.00009	5	494.566	1122.617	1610.747	830.659	2671.003	501.080	3831.838	739.624	4760.249	517.678
987	1.011	0.00009	5	596.224	1188.648	1592.939	759.579	2668.324	472.021	3820.372	699.696	4735.347	461.742
988	1.012	0.00009	5	679.724	1093.609	1601.257	701.181	2675.329	448.453	3823.841	665.708	4723.900	429.859
989	1.013	0.0002	5	718.796	979.134	1612.432	648.469	2684.660	429.552	3833.888	642.914	4719.261	416.183
990	1.014	0.0002	5	732.345	880.341	1619.863	599.832	2693.951	414.154	3847.184	629.454	4718.655	415.563
991	1.015	0.0002	5	733.996	796.297	1623.446	555.715	2702.754	401.210	3862.508	622.226	4720.927	424.583
992	1.016	0.0002	5	729.895	722.748	1624.031	515.971	2710.993	389.944	3879.194	618.802	4725.538	441.314
993	1.017	0.0002	5	722.758	656.933	1622.285	480.253	2718.621	379.902	3896.729	617.526	4732.240	464.789
994	1.018	0.0002	5	713.931	597.316	1618.653	448.284	2725.590	370.884	3914.651	617.285	4740.963	494.611
995	1.019	0.0002	5	704.167	543.021	1613.443	419.889	2731.858	362.855	3932.500	617.318	4751.761	530.701
996	1.020	0.0002	5	693.907	493.459	1606.860	394.960	2737.394	355.886	3949.794	617.108	4764.791	573.140
997	1.021	0.0002	5	683.363	448.095	1598.995	373.442	2742.172	350.126	3966.002	616.377	4780.302	622.059
998	1.022	0.0002	5	672.538	406.322	1589.766	355.347	2746.151	345.822	3980.544	615.148	4798.609	677.608
999	1.023	0.0002	5	661.198	367.383	1578.803	340.807	2749.263	343.389	3992.815	613.905	4820.068	740.087
1000	1.024	0.0002	5	648.847	330.407	1565.233	330.138	2751.384	343.534	4002.251	613.784	4845.091	810.382
1001	1.025	0.0002	5	634.805	294.630	1547.368	323.837	2752.325	347.433	4008.380	616.723	4874.334	890.782
1002	1.026	0.0002	5	618.543	259.885	1522.390	322.140	2751.884	356.786	4010.630	625.300	4909.268	985.521
1003	1.027	0.0002	5	600.273	226.966	1486.678	323.188	2750.060	373.427	4007.236	641.929	4952.869	1097.924
1004	1.028	0.0002	5	581.156	196.808	1438.388	319.555	2747.550	398.752	3992.298	668.114	5007.742	1218.950
1005	1.029	0.0002	5	562.818	169.060	1383.146	299.815	2746.402	436.435	3951.487	705.138	5067.373	1314.591
1006	1.030	0.0002	5	547.129	143.540	1335.169	263.564	2748.797	500.123	3859.992	742.254	5114.463	1343.974
1007	1.031	0.0002	5	535.593	122.035	1304.931	225.024	2747.513	606.237	3709.165	708.193	5163.244	1323.436
1008	1.032	0.0002	5	528.409	106.016	1291.346	194.311	2723.638	719.129	3577.696	556.041	5330.744	1380.600
1009	1.033	0.0002	4	525.144	96.025	1288.920	173.427	2699.200	763.044	3524.149	414.409	--undefined--	--undefined--
1010	1.034	0.0002	4	524.994	90.913	1292.128	160.583	2700.356	755.742	3513.104	335.382	--undefined--	--undefined--
1011	1.035	0.0002	4	526.991	88.461	1296.665	153.154	2712.755	738.735	3515.035	294.750	--undefined--	--undefined--
1012	1.036	0.0002	4	530.447	87.416	1300.666	149.884	2723.970	732.929	3520.030	274.937	--undefined--	--undefined--
1013	1.037	0.0002	4	534.893	87.563	1303.924	150.493	2731.860	745.076	3526.052	267.275	--undefined--	--undefined--
1014	1.038	0.0002	4	539.930	89.074	1306.798	154.877	2737.480	775.944	3533.089	267.015	--undefined--	--undefined--
1015	1.039	0.0002	4	545.202	92.178	1309.736	162.762	2741.858	824.202	3541.389	271.162	--undefined--	--undefined--
1016	1.040	0.0002	4	550.433	97.040	1313.119	173.539	2745.202	886.847	3551.010	277.619	--undefined--	--undefined--
1017	1.041	0.0003	4	555.426	103.705	1317.166	186.191	2746.752	958.468	3561.713	285.089	--undefined--	--undefined--
1018	1.042	0.0003	4	560.050	112.070	1321.877	199.384	2745.240	1030.866	3573.057	293.465	--undefined--	--undefined--
1019	1.043	0.0003	4	564.230	121.909	1327.102	211.769	2740.337	1094.217	3584.637	304.221	--undefined--	--undefined--
1020	1.044	0.0003	4	567.970	132.927	1332.757	222.359	2734.451	1140.272	3596.349	320.388	--undefined--	--undefined--
1021	1.045	0.0003	4	571.384	144.814	1339.064	230.723	2732.950	1165.913	3608.571	346.061	--undefined--	--undefined--
1022	1.046	0.0003	4	574.690	157.225	1346.567	236.864	2742.089	1173.210	3622.375	385.836	--undefined--	--undefined--
1023	1.047	0.0003	4	578.138	169.721	1355.926	240.841	2766.355	1164.509	3639.906	444.259	--undefined--	--undefined--
1024	1.048	0.0003	4	581.915	181.726	1367.591	242.330	2806.129	1136.463	3665.015	524.456	--undefined--	--undefined--
1025	1.049	0.0003	4	586.053	192.608	1381.488	240.494	2854.560	1081.153	3703.554	623.874	--undefined--	--undefined--
1026	1.050	0.0003	4	590.386	201.870	1396.814	234.408	2897.534	1001.736	3760.333	727.660	--undefined--	--undefined--
1027	1.051	0.0003	4	594.607	209.409	1412.188	223.914	2925.151	923.007	3831.968	814.014	--undefined--	--undefined--
1028	1.052	0.0003	4	598.414	215.648	1426.219	210.130	2939.797	869.423	3908.652	874.392	--undefined--	--undefined--
1029	1.053	0.0003	4	601.663	221.463	1438.097	195.009	2947.961	849.166	3984.285	912.257	--undefined--	--undefined--
1030	1.054	0.0003	4	604.435	227.954	1447.743	180.413	2953.722	861.196	4056.577	925.696	--undefined--	--undefined--
1031	1.055	0.0003	4	606.998	236.194	1455.562	167.514	2958.444	901.970	4119.253	903.415	--undefined--	--undefined--
1032	1.056	0.0003	4	609.718	247.056	1462.103	156.727	2961.927	965.431	4159.287	841.389	--undefined--	--undefined--
1033	1.057	0.0003	4	613.007	261.069	1467.856	147.898	2964.127	1036.868	4169.955	755.520	--undefined--	--undefined--
1034	1.058	0.0003	4	617.367	278.293	1473.177	140.440	2967.158	1084.402	4160.462	663.687	--undefined--	--undefined--
1035	1.059	0.0003	4	623.364	297.979	1478.228	133.562	2974.358	1067.402	4145.397	576.340	--undefined--	--undefined--
1036	1.060	0.0003	4	631.065	317.924	1482.897	126.850	2985.144	974.847	4133.122	501.805	--undefined--	--undefined--
1037	1.061	0.0003	4	639.140	334.642	1486.931	120.675	2995.533	842.096	4124.591	445.828	--undefined--	--undefined--
1038	1.062	0.0003	4	645.153	345.385	1490.221	115.663	3003.783	713.358	4118.241	410.434	--undefined--	--undefined--
1039	1.063	0.0003	4	647.301	349.635	1492.883	111.955	3010.841	611.128	4113.383	395.055	--undefined--	--undefined--
1040	1.064	0.0004	4	645.427	348.361	1495.141	109.165	3018.277	538.486	4110.696	398.059	--undefined--	--undefined--
1041	1.065	0.0004	4	640.582	342.948	1497.228	106.712	3027.316	490.125	4111.832	417.649	--undefined--	--undefined--
1042	1.066	0.0004	4	634.203	334.873	1499.347	104.056	3038.675	458.721	4119.087	451.794	--undefined--	--undefined--
1043	1.067	0.0004	4	627.578	325.644	1501.655	100.801	3052.523	437.187	4134.947	497.360	--undefined--	--undefined--
1044	1.068	0.0004	4	621.585	316.587	1504.214	96.759	3068.421	419.671	4161.213	549.153	--undefined--	--undefined--
1045	1.069	0.0004	4	616.585	308.553	1506.944	92.004	3085.459	402.698	4197.728	600.329	--undefined--	--undefined--
1046	1.070	0.0004	4	612.397	301.710	1509.619	86.920	3102.744	386.010	4241.651	645.405	--undefined--	--undefined--
1047	1.071	0.0004	4	608.380	295.578	1511.934	82.159	3119.862	372.056	4288.561	684.063	--undefined--	--undefined--
1048	1.072	0.0004	4	603.736	289.303	1513.624	78.465	3136.780	364.307	4334.738	721.385	--undefined--	--undefined--
1049	1.073	0.0004	4	598.065	282.119	1514.533	76.383	3153.321	365.673	4377.840	764.618	--undefined--	--undefined--
1050	1.074	0.0004	4	591.861	274.009	1514.667	76.007	3168.728	377.762	4415.292	822.878	--undefined--	--undefined--
1051	1.075	0.0004	4	586.365	266.244	1514.225	76.932	3181.464	401.010	4443.675	912.004	--undefined--	--undefined--
1052	1.076	0.0004	5	582.787	261.018	1513.624	78.529	3189.061	435.122	3255.565	6628.496	4459.183	1057.280
1053	1.077	0.0004	5	581.737	260.251	1513.378	80.318	3187.780	478.078	3378.522	5294.952	4450.795	1295.622
1054	1.078	0.0004	5	583.242	264.775	1513.906	82.094	3172.538	520.832	4294.412	5666.885	4350.419	1663.535
1055	1.079	0.0004	4	587.034	274.346	1515.409	83.782	3141.356	539.895	4097.820	1659.803	--undefined--	--undefined--
1056	1.080	0.0004	4	592.747	288.017	1517.882	85.316	3104.395	513.298	4041.035	1399.502	--undefined--	--undefined--
1057	1.081	0.0004	4	599.929	304.341	1521.156	86.673	3074.633	450.440	4079.121	1202.145	--undefined--	--undefined--
1058	1.082	0.0004	4	607.819	321.305	1524.924	88.021	3055.204	374.744	4147.374	1034.179	--undefined--	--undefined--
1059	1.083	0.0004	4	615.042	336.446	1528.779	89.794	3044.288	303.030	4216.064	865.580	--undefined--	--undefined--
1060	1.084	0.0004	4	619.750	347.584	1532.307	92.557	3039.514	243.553	4266.804	697.116	--undefined--	--undefined--
1061	1.085	0.0004	4	620.540	353.637	1535.181	96.675	3038.682	198.201	4295.303	548.369	--undefined--	--undefined--
1062	1.086	0.0004	4	617.443	354.825	1537.249	102.007	3039.828	165.389	4308.002	432.786	--undefined--	--undefined--
1063	1.087	0.0004	4	611.799	352.441	1538.599	107.860	3041.394	142.573	4312.688	351.458	--undefined--	--undefined--
1064	1.088	0.0004	4	605.000	348.090	1539.541	113.334	3042.428	127.487	4314.249	298.444	--undefined--	--undefined--
1065	1.089	0.0004	4	597.484	342.458	1540.450	117.822	3042.577	118.399	4314.573	265.682	--undefined--	--undefined--
1066	1.090	0.0004	4	588.873	334.858	1541.621	121.174	3041.862	114.090	4313.854	245.962	--undefined--	--undefined--
1067	1.091	0.0004	4	578.705	323.892	1543.228	123.478	3040.458	113.794	4311.854	234.135	--undefined--	--undefined--
1068	1.092	0.0004	4	566.986	308.402	1545.347	124.806	3038.601	116.993	4308.539	227.064	--undefined--	--undefined--
1069	1.093	0.0004	4	554.274	288.148	1548.000	125.137	3036.618	123.158	4304.184	223.029	--undefined--	--undefined--
1070	1.094	0.0004	4	541.434	264.015	1551.188	124.456	3034.982	131.521	4299.224	221.000	--undefined--	--undefined--
1071	1.095	0.0004	5	529.306	237.714	1554.937	122.872	3034.311	141.003	3982.176	7553.521	4294.102	220.020
1072	1.096	0.0004	5	518.496	211.183	1559.303	120.657	3035.263	150.306	3660.135	5734.674	4289.182	218.787
1073	1.097	0.0004	5	509.316	186.034	1564.360	118.147	3038.336	158.094	3574.806	4898.921	4284.787	215.599
1074	1.098	0.0004	5	501.809	163.253	1570.196	115.577	3043.641	163.111	3524.121	4428.634	4281.304	208.804
1075	1.099	0.0004	5	495.810	143.174	1576.900	112.967	3050.718	164.227	3484.540	4167.874	4279.281	197.718
1076	1.100	0.0004	5	491.023	125.638	1584.551	110.096	3058.506	160.645	3456.568	4044.110	4279.321	183.387
1077	1.101	0.0004	5	487.099	110.240	1593.159	106.606	3065.657	152.415	3447.288	4008.523	4281.831	168.289
1078	1.102	0.0004	5	483.715	96.559	1602.594	102.182	3071.202	140.845	3460.330	4014.034	4286.872	154.969
1079	1.103	0.0004	5	480.639	84.337	1612.529	96.713	3075.033	128.168	3488.318	4008.460	4294.247	144.879
1080	1.104	0.0004	5	477.756	73.535	1622.440	90.368	3077.747	116.616	3513.998	3947.654	4303.640	138.277
1081	1.105	0.0004	5	475.059	64.276	1631.696	83.596	3080.121	107.734	3520.789	3816.262	4314.672	134.783
1082	1.106	0.0004	5	472.594	56.706	1639.708	77.044	3082.757	102.347	3502.237	3629.731	4326.853	133.919
1083	1.107	0.0004	5	470.414	50.879	1646.104	71.393	3086.009	100.862	3461.927	3415.830	4339.542	135.445
1084	1.108	0.0004	5	468.546	46.716	1650.809	67.182	3090.044	103.532	3408.196	3197.320	4351.987	139.503
1085	1.109	0.0004	5	466.984	44.034	1654.001	64.727	3094.896	110.492	3349.939	2986.796	4363.447	146.559
1086	1.110	0.0004	5	465.699	42.603	1656.003	64.148	3100.463	121.522	3294.205	2788.841	4373.351	157.060
1087	1.111	0.0004	5	464.647	42.180	1657.161	65.443	3106.419	135.551	3245.040	2603.198	4381.398	170.876
1088	1.112	0.0004	5	463.779	42.523	1657.773	68.515	3112.047	150.274	3203.941	2427.538	4387.538	186.840
1089	1.113	0.0004	5	463.038	43.395	1658.063	73.133	3116.213	162.671	3171.438	2259.964	4391.868	202.856
1090	1.114	0.0004	5	462.370	44.570	1658.193	78.838	3117.773	170.708	3148.144	2100.598	4394.539	216.756
1091	1.115	0.0004	5	461.721	45.863	1658.306	84.864	3116.191	174.553	3134.634	1952.631	4395.720	227.307
1092	1.116	0.0004	5	461.044	47.157	1658.566	90.177	3111.699	175.746	3130.976	1822.618	4395.609	234.446
1093	1.117	0.0004	5	460.297	48.402	1659.157	93.735	3104.982	175.530	3136.288	1718.376	4394.457	238.661
1094	1.118	0.0004	5	459.444	49.601	1660.224	94.909	3096.953	174.160	3148.318	1645.609	4392.595	240.225
1095	1.119	0.0004	5	458.457	50.787	1661.844	93.785	3088.715	171.308	3163.422	1605.873	4390.404	238.992
1096	1.120	0.0004	5	457.322	52.018	1664.040	91.111	3081.413	166.787	3177.226	1596.242	4388.216	234.759
1097	1.121	0.0004	5	456.040	53.359	1666.814	87.920	3075.856	160.894	3185.856	1609.716	4386.222	227.788
1098	1.122	0.0004	5	454.617	54.852	1670.146	85.128	3072.146	154.299	3187.327	1635.845	4384.415	219.083
1099	1.123	0.0004	5	453.054	56.480	1673.942	83.305	3069.551	147.865	3182.599	1662.151	4382.587	210.261
1100	1.124	0.0004	5	451.339	58.162	1677.986	82.644	3066.731	142.511	3175.696	1677.324	4380.396	203.140
1101	1.125	0.0004	5	449.449	59.805	1681.926	83.030	3062.192	138.935	3172.542	1675.845	4377.497	199.324
1102	1.126	0.0004	5	447.363	61.384	1685.317	84.148	3054.708	137.152	3178.995	1661.198	4373.667	199.995
1103	1.127	0.0004	5	445.069	62.983	1687.695	85.584	3043.607	136.130	3199.221	1644.904	4368.867	205.928
1104	1.128	0.0004	5	442.562	64.770	1688.696	86.935	3029.029	133.907	3235.117	1642.023	4363.195	217.624
1105	1.129	0.0004	5	439.845	66.910	1688.184	87.903	3012.146	128.553	3286.599	1665.817	4356.764	235.361
1106	1.130	0.0004	5	436.922	69.482	1686.334	88.351	2994.927	119.589	3352.212	1723.061	4349.612	259.016
1107	1.131	0.0004	5	433.805	72.426	1683.614	88.337	2979.337	108.465	3429.142	1810.196	4341.831	287.610
1108	1.132	0.0004	5	430.522	75.514	1680.655	88.085	2966.664	97.538	3511.525	1910.114	4334.122	318.928
1109	1.133	0.0004	5	427.130	78.373	1678.090	87.898	2957.358	88.791	3587.827	1991.774	4328.559	349.985
1110	1.134	0.0004	5	423.730	80.548	1676.445	88.027	2951.193	83.256	3641.912	2020.024	4328.552	378.105
1111	1.135	0.0004	5	420.478	81.648	1676.088	88.555	2947.511	81.082	3661.519	1977.472	4337.297	400.611
1112	1.136	0.0004	5	417.569	81.492	1677.186	89.394	2945.453	81.854	3647.230	1878.712	4355.603	413.478
1113	1.137	0.0004	5	415.175	80.186	1679.657	90.386	2944.154	84.900	3610.972	1757.838	4380.882	413.182
1114	1.138	0.0004	5	413.385	78.092	1683.140	91.425	2942.863	89.497	3566.531	1644.577	4408.795	400.652
1115	1.139	0.0004	5	412.169	75.716	1687.062	92.510	2941.003	95.018	3522.590	1554.177	4435.968	380.848
1116	1.140	0.0004	5	411.410	73.564	1690.793	93.708	2938.194	100.968	3482.259	1491.054	4460.718	359.011
1117	1.141	0.0004	5	410.943	72.028	1693.846	95.077	2934.295	106.937	3445.683	1454.639	4482.265	338.664
1118	1.142	0.0004	5	410.610	71.340	1696.037	96.611	2929.476	112.506	3412.176	1442.819	4500.070	321.719
1119	1.143	0.0004	5	410.279	71.598	1697.523	98.260	2924.300	117.276	3380.938	1453.020	4513.718	309.061
1120	1.144	0.0004	5	409.855	72.799	1698.709	100.003	2919.704	121.091	3350.748	1481.155	4523.139	300.881
1121	1.145	0.0004	5	409.267	74.850	1700.050	101.900	2916.796	124.331	3319.609	1519.384	4528.897	296.793
1122	1.146	0.0004	5	408.465	77.546	1701.840	104.063	2916.473	127.933	3285.269	1555.533	4532.316	296.035
1123	1.147	0.0004	5	407.409	80.575	1704.125	106.582	2919.104	133.016	3246.626	1576.965	4535.195	297.789
1124	1.148	0.0004	5	406.071	83.586	1706.766	109.471	2924.463	140.412	3204.707	1576.909	4539.121	301.379
1125	1.149	0.0004	5	404.438	86.298	1709.572	112.671	2931.911	150.377	3162.203	1557.584	4544.695	306.168
1126	1.150	0.0004	5	402.500	88.593	1712.405	116.094	2940.604	162.390	3122.501	1528.705	4550.991	311.484
1127	1.151	0.0004	5	400.245	90.558	1715.248	119.659	2949.557	174.812	3089.536	1505.042	4555.512	316.858
1128	1.152	0.0004	5	397.642	92.477	1718.208	123.286	2957.542	184.525	3068.033	1504.957	4554.756	322.215
1129	1.153	0.0004	5	394.635	94.728	1721.427	126.843	2963.311	187.341	3062.610	1547.980	4545.329	327.335
1130	1.154	0.0004	5	391.145	97.621	1724.919	130.086	2966.464	179.959	3075.310	1649.669	4525.397	330.658
1131	1.155	0.0004	5	387.076	101.268	1728.427	132.666	2967.959	162.645	3103.821	1815.613	4496.081	328.870
1132	1.156	0.0004	5	382.350	105.642	1731.477	134.223	2969.111	139.586	3143.579	2040.883	4461.881	319.063
1133	1.157	0.0004	5	376.937	110.760	1733.625	134.474	2970.429	115.935	3193.727	2320.407	4428.857	302.285
1134	1.158	0.0004	5	370.866	116.840	1734.698	133.267	2971.666	95.060	3263.470	2667.417	4401.333	283.589
1135	1.159	0.0003	5	364.182	124.211	1734.821	130.654	2972.384	78.211	3376.753	3130.602	4380.259	267.574
1136	1.160	0.0003	5	356.864	133.059	1734.255	126.975	2972.269	65.425	3587.564	3815.664	4364.372	254.818
1137	1.161	0.0003	5	348.766	143.228	1733.269	122.827	2971.147	56.314	4109.914	4995.759	4352.332	242.539
1138	1.162	0.0003	4	339.594	154.204	1732.098	118.893	2968.948	50.430	4343.862	228.250	--undefined--	--undefined--
1139	1.163	0.0003	4	328.957	165.127	1730.889	115.785	2965.723	47.465	4339.157	212.729	--undefined--	--undefined--
1140	1.164	0.0003	4	316.503	174.721	1729.627	114.033	2961.721	47.442	4337.878	199.679	--undefined--	--undefined--
1141	1.165	0.0002	4	302.152	181.285	1728.118	114.231	2957.509	50.993	4339.263	194.193	--undefined--	--undefined--
1142	1.166	0.0002	4	286.381	183.368	1726.142	117.143	2954.188	59.793	4343.100	202.919	--undefined--	--undefined--
1143	1.167	0.0002	4	270.305	181.582	1723.934	123.611	2953.635	76.865	4351.328	235.796	--undefined--	--undefined--
1144	1.168	0.0002	5	255.228	179.870	1722.884	134.659	2958.379	105.476	4371.690	305.502	4518.579	3449.427
1145	1.169	0.0002	5	242.063	182.923	1725.401	152.165	2970.439	145.088	4030.982	2315.992	4423.401	404.872
1146	1.170	0.0002	5	231.308	191.803	1733.383	178.154	2989.191	188.355	3792.109	1705.877	4506.492	455.146
1147	1.171	0.0002	5	223.308	203.655	1747.256	212.541	3011.014	225.592	3646.932	1403.733	4570.728	443.335
1148	1.172	0.0002	5	218.247	214.709	1766.218	252.145	3032.658	250.704	3566.018	1255.536	4604.660	423.626
1149	1.173	0.0002	5	216.000	222.163	1788.289	291.424	3053.136	261.784	3530.351	1196.534	4615.339	412.543
1150	1.174	0.0002	5	216.064	224.570	1810.391	324.693	3072.357	260.324	3528.894	1193.770	4608.984	410.687
1151	1.175	0.0002	5	217.638	221.902	1829.190	348.626	3090.413	250.097	3554.132	1223.257	4590.268	415.093
1152	1.176	0.0002	5	219.821	215.353	1842.106	363.011	3107.712	234.860	3600.633	1268.636	4562.672	422.903
1153	1.177	0.0001	5	221.832	206.958	1847.641	369.686	3124.667	217.029	3665.648	1322.091	4528.899	432.842
1154	1.178	0.0001	5	223.140	199.394	1845.101	371.320	3141.242	198.121	3750.470	1383.132	4490.903	446.002
1155	1.179	0.0001	5	223.452	196.225	1834.279	371.126	3156.797	179.924	3861.371	1458.327	4448.854	465.055
1156	1.180	0.0001	5	222.548	202.843	1815.579	373.430	3170.222	165.508	4008.585	1570.443	4399.270	486.077
1157	1.181	0.0002	5	219.692	228.436	1790.874	384.268	3180.291	159.431	4194.442	1786.981	4343.986	478.097
1158	1.182	0.0002	5	211.431	289.364	1764.593	411.048	3186.448	166.689	4309.981	432.591	4407.128	2195.492
1159	1.183	0.0002	5	182.145	414.805	1742.542	461.363	3190.183	190.279	4302.190	394.358	4787.370	2956.297
1160	1.184	0.0002	3	1728.569	543.775	3195.985	227.163	4306.854	375.498	--undefined--	--undefined--	--undefined--	--undefined--
1161	1.185	0.0002	4	338.183	3153.512	1726.743	673.814	3208.978	264.735	4314.593	370.638	--undefined--	--undefined--
1162	1.186	0.0002	4	1225.589	1700.047	1767.869	876.286	3228.698	286.556	4320.285	373.474	--undefined--	--undefined--
1163	1.187	0.0002	4	1256.344	1083.793	1894.774	942.770	3248.440	287.764	4321.563	379.624	--undefined--	--undefined--
1164	1.188	0.0002	4	1239.142	873.213	1960.273	863.824	3262.938	276.289	4318.176	386.396	--undefined--	--undefined--
1165	1.189	0.0002	4	1228.200	784.182	1982.132	797.909	3271.284	260.919	4311.286	392.279	--undefined--	--undefined--
1166	1.190	0.0002	4	1220.428	751.082	1985.352	759.447	3274.533	246.436	4302.508	396.832	--undefined--	--undefined--
1167	1.191	0.0002	4	1214.596	756.955	1978.548	746.834	3273.821	235.004	4293.185	400.676	--undefined--	--undefined--
1168	1.192	0.0002	4	1210.359	803.713	1962.846	760.123	3269.859	227.992	4284.351	405.283	--undefined--	--undefined--
1169	1.193	0.0002	4	1208.725	911.143	1933.542	802.276	3263.040	227.045	4277.763	412.939	--undefined--	--undefined--
1170	1.194	0.0002	4	1213.858	1139.360	1875.702	870.518	3253.608	234.749	4277.883	427.410	--undefined--	--undefined--
1171	1.195	0.0002	4	1207.661	1692.338	1770.781	887.169	3241.501	254.194	4292.533	453.310	--undefined--	--undefined--
1172	1.196	0.0002	4	932.523	2874.841	1704.081	795.549	3226.721	285.494	4327.620	486.985	--undefined--	--undefined--
1173	1.197	0.0002	3	1679.558	762.244	3212.755	327.694	4381.045	506.716	--undefined--	--undefined--	--undefined--	--undefined--
1174	1.198	0.0002	3	1649.384	779.685	3204.848	390.681	4443.878	493.556	--undefined--	--undefined--	--undefined--	--undefined--
1175	1.199	0.0002	4	1194.625	4785.885	1595.523	805.061	3203.498	484.680	4501.778	454.386	--undefined--	--undefined--
1176	1.200	0.0002	4	1527.857	785.295	2018.154	3477.699	3205.447	606.384	4545.388	410.390	--undefined--	--undefined--
1177	1.201	0.0002	4	1482.561	721.158	2344.475	2845.863	3204.460	744.377	4575.855	375.182	--undefined--	--undefined--
1178	1.202	0.0002	4	1464.650	663.058	2554.231	2558.213	3190.286	887.966	4597.903	350.925	--undefined--	--undefined--
1179	1.203	0.0002	4	1462.032	625.511	2758.886	2486.795	3145.934	1019.523	4615.285	335.218	--undefined--	--undefined--
1180	1.204	0.0002	4	1467.480	605.823	3016.288	2669.574	3063.012	1060.775	4630.286	325.214	--undefined--	--undefined--
1181	1.205	0.0002	4	1477.806	600.007	3004.741	977.867	3327.624	3170.108	4644.214	318.657	--undefined--	--undefined--
1182	1.206	0.0002	4	1491.682	605.642	2986.207	878.212	3928.662	4027.217	4657.929	313.847	--undefined--	--undefined--
1183	1.207	0.0002	4	1508.586	622.189	2987.748	791.075	4672.315	309.106	4744.889	2123.140	--undefined--	--undefined--
1184	1.208	0.0002	4	1528.334	651.399	3000.478	715.900	4595.435	1504.202	4688.462	301.266	--undefined--	--undefined--
1185	1.209	0.0002	4	1550.942	698.375	3020.429	649.154	4515.675	1176.088	4706.211	283.814	--undefined--	--undefined--
1186	1.210	0.0002	4	1576.723	773.165	3044.497	588.256	4452.476	968.434	4721.315	252.250	--undefined--	--undefined--
1187	1.211	0.0002	4	1606.358	890.181	3068.862	533.165	4400.310	831.893	4729.130	213.617	--undefined--	--undefined--
1188	1.212	0.0002	4	1638.385	1054.129	3089.034	486.236	4356.756	743.303	4729.681	178.366	--undefined--	--undefined--
1189	1.213	0.0002	5	336.775	1250.775	1656.400	1232.335	3101.839	449.149	4319.001	692.856	4725.355	151.997
1190	1.214	0.0002	5	463.794	1038.224	1632.619	1372.265	3108.639	421.068	4286.762	671.969	4718.727	135.835
1191	1.215	0.0002	5	507.034	927.851	1575.104	1435.124	3113.935	401.372	4262.732	672.283	4711.643	129.325
1192	1.216	0.0002	5	516.225	863.513	1522.258	1417.059	3120.585	390.078	4249.189	690.692	4704.855	131.935
1193	1.217	0.0002	5	508.299	810.632	1497.561	1351.626	3129.564	385.670	4247.326	727.394	4698.508	144.383
1194	1.218	0.0002	5	492.626	756.402	1502.416	1268.686	3141.779	384.726	4259.301	780.285	4692.714	169.355
1195	1.219	0.0002	5	474.424	697.030	1531.069	1173.362	3157.988	382.418	4288.074	837.498	4688.021	211.901
1196	1.220	0.0002	5	456.448	631.265	1575.529	1056.306	3177.348	374.451	4331.164	868.123	4686.938	279.033
1197	1.221	0.0002	5	440.497	561.480	1624.708	915.191	3197.088	361.027	4366.386	830.320	4699.677	373.069
1198	1.222	0.0002	5	427.937	494.365	1668.734	766.707	3214.593	348.383	4354.078	743.914	4743.496	449.536
1199	1.223	0.0002	5	419.676	437.580	1703.793	635.467	3229.100	344.895	4306.776	692.217	4793.166	443.899
1200	1.224	0.0002	5	415.922	395.582	1730.569	536.781	3240.742	356.795	4260.048	680.255	4819.786	393.439
1201	1.225	0.0002	5	415.687	368.472	1750.880	472.058	3248.562	386.560	4223.707	692.869	4826.331	339.838
1202	1.226	0.0002	5	416.658	353.985	1766.349	434.387	3249.433	431.909	4196.912	714.980	4822.748	296.638
1203	1.227	0.0002	5	416.044	349.506	1777.940	414.699	3238.353	483.575	4178.821	727.988	4816.560	264.887
1204	1.228	0.0002	5	411.616	352.619	1785.713	404.564	3211.216	523.843	4171.887	717.863	4811.694	243.093
1205	1.229	0.0002	5	402.056	361.447	1789.307	396.981	3170.442	533.623	4178.004	685.154	4809.410	229.984
1206	1.230	0.0002	5	386.706	375.589	1788.905	387.176	3126.205	508.462	4193.928	641.711	4809.598	224.724
1207	1.231	0.0002	5	365.015	396.899	1785.478	373.556	3088.870	462.430	4213.075	598.938	4811.767	226.734
1208	1.232	0.0002	5	335.840	429.223	1779.928	357.366	3063.078	414.321	4229.430	562.744	4815.504	235.575
1209	1.233	0.0002	5	296.544	477.019	1772.304	340.637	3048.759	376.282	4239.084	534.952	4820.517	251.031
1210	1.234	0.0002	5	241.414	542.709	1762.049	323.982	3044.154	352.410	4240.523	515.356	4826.546	273.475
1211	1.235	0.0002	5	156.326	622.216	1749.048	305.787	3047.509	341.171	4234.781	502.442	4833.377	304.257
1212	1.236	0.0002	4	1734.619	283.430	3057.376	337.264	4225.239	493.577	4840.939	345.635	--undefined--	--undefined--
1213	1.237	0.0002	4	1721.246	255.967	3071.972	333.126	4216.627	486.039	4849.203	400.034	--undefined--	--undefined--
1214	1.238	0.0002	4	1711.007	225.624	3088.227	321.805	4213.318	478.847	4857.647	468.561	--undefined--	--undefined--
1215	1.239	0.0002	4	1704.584	196.321	3102.033	300.872	4217.805	474.117	4864.300	548.579	--undefined--	--undefined--
1216	1.240	0.0002	4	1701.692	171.102	3110.390	273.804	4230.609	477.215	4864.884	631.647	--undefined--	--undefined--
1217	1.241	0.0002	4	1701.763	150.897	3113.091	246.885	4251.652	495.318	4853.566	706.104	--undefined--	--undefined--
1218	1.242	0.0003	5	115.159	625.599	1704.196	135.019	3111.895	225.152	4281.677	534.361	4825.958	764.635
1219	1.243	0.0003	5	177.247	584.329	1708.388	122.174	3108.447	210.918	4322.564	597.053	4780.230	806.153
1220	1.244	0.0003	5	221.206	546.055	1713.721	111.079	3102.927	204.433	4377.333	687.296	4713.331	823.120
1221	1.245	0.0003	5	256.453	509.521	1719.545	100.761	3093.875	204.783	4445.586	857.697	4622.561	747.171
1222	1.246	0.0003	5	286.139	472.702	1725.209	90.684	3078.843	209.945	4418.473	1073.823	4613.577	589.313
1223	1.247	0.0003	5	311.511	433.888	1730.188	80.724	3055.865	216.046	4360.240	1145.874	4625.704	524.920
1224	1.248	0.0003	5	332.902	393.004	1734.205	71.038	3025.697	217.560	4308.949	1144.070	4632.723	494.899
1225	1.249	0.0003	5	350.291	352.257	1737.260	61.985	2993.019	210.608	4279.165	1115.922	4631.643	484.260
1226	1.250	0.0003	5	363.766	315.068	1739.500	54.013	2963.978	196.550	4275.855	1098.037	4621.107	486.644
1227	1.251	0.0003	5	373.727	284.051	1741.057	47.434	2942.179	180.364	4296.140	1110.315	4600.998	493.786
1228	1.252	0.0004	5	380.789	259.964	1742.003	42.286	2927.622	166.401	4332.914	1160.066	4573.377	493.278
1229	1.253	0.0004	5	385.600	242.079	1742.431	38.383	2918.294	156.705	4376.118	1242.728	4543.850	476.765
1230	1.254	0.0004	5	388.748	229.050	1742.532	35.459	2911.790	151.591	4418.866	1337.350	4516.290	450.916
1231	1.255	0.0004	5	390.710	219.556	1742.592	33.270	2906.103	150.416	4462.860	1421.962	4487.323	425.654
1232	1.256	0.0004	5	391.842	212.698	1742.910	31.634	2899.981	151.782	4452.056	400.868	4512.695	1491.911
1233	1.257	0.0004	5	392.390	208.193	1743.687	30.434	2893.232	153.457	4410.563	369.224	4570.141	1563.229
1234	1.258	0.0004	5	392.532	206.256	1744.930	29.592	2886.811	152.747	4368.807	327.284	4633.455	1660.392
1235	1.259	0.0004	5	392.401	207.261	1746.413	29.056	2882.243	147.688	4333.026	281.334	4701.453	1798.724
1236	1.260	0.0004	5	392.099	211.382	1747.726	28.799	2880.470	138.270	4305.615	240.531	4774.173	1976.791
1237	1.261	0.0004	5	391.693	218.378	1748.403	28.823	2881.203	126.465	4286.289	210.543	4844.411	2173.409
1238	1.262	0.0004	5	391.209	227.568	1748.061	29.151	2883.354	115.053	4274.133	193.138	4884.617	2347.819
1239	1.263	0.0004	5	390.646	238.069	1746.529	29.825	2885.888	106.336	4268.493	187.826	4852.784	2451.773
1240	1.264	0.0004	5	389.988	249.243	1743.888	30.895	2888.224	101.624	4269.034	192.838	4741.478	2455.815
1241	1.265	0.0004	5	389.220	261.095	1740.430	32.417	2890.176	101.449	4275.352	204.922	4592.632	2370.843
1242	1.266	0.0004	5	388.336	274.385	1736.557	34.458	2891.775	106.001	4286.201	218.807	4449.912	2241.226
1243	1.267	0.0004	5	387.324	290.345	1732.664	37.090	2893.144	115.435	4298.817	228.408	4335.272	2117.195
1244	1.268	0.0004	5	386.171	310.194	1729.048	40.355	2894.425	129.977	4253.680	2033.062	4309.636	230.182
1245	1.269	0.0004	5	384.875	334.716	1725.882	44.225	2895.725	149.811	4200.831	2003.158	4316.338	224.727
1246	1.270	0.0004	5	383.463	364.071	1723.242	48.582	2897.051	174.716	4168.479	2029.274	4318.759	214.690
1247	1.271	0.0004	5	382.024	397.784	1721.149	53.229	2898.251	203.565	4148.153	2108.086	4317.992	202.544
1248	1.272	0.0004	5	380.731	434.778	1719.612	57.947	2898.997	234.035	4132.915	2233.825	4315.333	190.092
1249	1.273	0.0004	5	379.848	473.475	1718.635	62.550	2898.848	263.021	4117.437	2397.379	4311.893	178.678
1250	1.274	0.0004	5	379.683	512.014	1718.215	66.948	2897.426	287.811	4097.472	2583.768	4308.675	169.421
1251	1.275	0.0004	5	380.476	548.630	1718.327	71.176	2894.596	307.266	4070.244	2770.557	4306.746	163.383
1252	1.276	0.0004	5	382.261	582.100	1718.902	75.394	2890.530	322.031	4036.917	2931.632	4307.323	161.638
1253	1.277	0.0004	5	384.793	612.147	1719.807	79.837	2885.651	333.711	4004.711	3047.667	4311.699	165.140
1254	1.278	0.0004	5	387.639	639.396	1720.820	84.713	2880.523	343.915	3982.505	3113.078	4320.999	174.197
1255	1.279	0.0004	5	390.397	664.731	1721.610	90.081	2875.740	353.721	3972.066	3131.731	4335.690	187.644
1256	1.280	0.0004	5	392.869	688.783	1721.766	95.727	2871.824	363.276	3967.806	3114.531	4354.934	202.472
1257	1.281	0.0004	5	395.059	711.988	1720.913	101.119	2869.170	371.450	3965.763	3083.253	4376.323	214.904
1258	1.282	0.0004	5	397.048	734.853	1718.893	105.514	2868.149	376.018	3967.541	3067.260	4396.769	222.411
1259	1.283	0.0004	5	398.811	758.505	1715.957	108.308	2869.304	374.515	3976.148	3097.351	4414.088	224.574
1260	1.284	0.0004	5	400.038	785.544	1712.786	109.443	2873.358	365.422	3993.079	3207.442	4427.750	222.266
1261	1.285	0.0004	5	400.050	820.410	1710.262	109.556	2880.813	349.057	4020.806	3441.143	4438.434	216.694
1262	1.286	0.0004	5	397.831	868.720	1709.094	109.653	2891.483	327.608	4070.462	3863.688	4447.238	209.164
1263	1.287	0.0004	5	392.058	935.987	1709.552	110.582	2904.489	304.349	4188.304	4605.435	4455.088	201.074
1264	1.288	0.0004	5	381.005	1026.640	1711.419	112.650	2918.709	282.681	4462.456	193.725	4738.186	6126.570
1265	1.289	0.0004	4	362.112	1144.192	1714.076	115.576	2933.239	265.348	4469.343	188.044	--undefined--	--undefined--
1266	1.290	0.0004	4	330.427	1293.672	1716.663	118.695	2947.518	254.016	4475.496	184.493	--undefined--	--undefined--
1267	1.291	0.0004	4	271.424	1490.632	1718.307	121.277	2961.176	249.324	4480.730	183.178	--undefined--	--undefined--
1268	1.292	0.0004	3	1718.374	122.807	2973.877	251.310	4485.185	184.051	--undefined--	--undefined--	--undefined--	--undefined--
1269	1.293	0.0004	4	481.621	2551.963	1716.668	123.117	2985.307	259.893	4489.401	187.071	--undefined--	--undefined--
1270	1.294	0.0004	4	586.099	2496.111	1713.461	122.356	2995.279	275.149	4494.194	192.240	--undefined--	--undefined--
1271	1.295	0.0004	4	561.193	2491.630	1709.346	120.887	3003.856	297.269	4500.454	199.452	--undefined--	--undefined--
1272	1.296	0.0004	4	237.917	2450.115	1704.984	119.174	3011.377	326.170	4508.926	208.072	--undefined--	--undefined--
1273	1.297	0.0004	4	369.659	1583.893	1700.869	117.686	3018.269	360.692	4519.979	216.384	--undefined--	--undefined--
1274	1.298	0.0004	5	438.168	1351.750	1697.184	116.840	1892.083	5926.833	3024.511	397.387	4533.276	221.318
1275	1.299	0.0004	5	477.003	1186.012	1693.806	116.944	2276.447	4452.264	3028.855	429.499	4547.473	219.241
1276	1.300	0.0004	5	502.098	1061.305	1690.447	118.156	2397.536	3708.825	3028.709	447.901	4560.491	208.065
1277	1.301	0.0004	5	519.818	968.707	1686.853	120.487	2447.619	3261.143	3022.153	445.612	4570.638	189.046
1278	1.302	0.0004	5	533.648	901.716	1682.970	123.825	2466.164	2967.429	3010.931	423.379	4577.564	166.292
1279	1.303	0.0004	5	545.677	853.148	1678.991	127.880	2467.853	2742.506	2999.828	390.266	4581.972	144.565
1280	1.304	0.0004	5	557.217	815.772	1675.304	132.061	2464.027	2543.619	2992.609	357.640	4584.692	127.505
1281	1.305	0.0004	5	569.076	784.527	1672.381	135.537	2465.767	2370.914	2989.898	333.242	4586.179	117.163
1282	1.306	0.0004	5	581.542	757.138	1670.582	137.551	2481.773	2244.112	2990.096	320.433	4586.501	114.420
1283	1.307	0.0004	5	594.277	732.196	1669.921	137.780	2518.227	2174.872	2990.966	320.161	4585.450	119.594
1284	1.308	0.0004	5	606.414	707.513	1669.994	136.431	2579.446	2156.430	2990.500	332.305	4582.653	132.817
1285	1.309	0.0004	5	616.966	680.799	1670.192	134.140	2667.099	2168.339	2986.998	355.938	4577.719	154.073
1286	1.310	0.0004	5	625.357	651.404	1670.036	131.777	2778.440	2187.412	2978.888	388.865	4570.463	182.974
1287	1.311	0.0004	5	631.742	620.957	1669.394	130.229	2905.438	2199.341	2964.901	426.621	4561.108	218.357
1288	1.312	0.0004	5	636.877	592.423	1668.535	130.196	2945.112	462.039	3035.735	2205.279	4550.418	257.811
1289	1.313	0.0004	5	641.691	568.621	1668.064	132.022	2922.149	487.679	3154.706	2218.297	4539.690	297.249
1290	1.314	0.0004	5	646.898	551.239	1668.706	135.596	2900.463	499.753	3248.300	2253.258	4530.578	330.987
1291	1.315	0.0004	5	652.815	540.652	1670.937	140.356	2884.156	498.241	3305.610	2318.907	4524.670	353.084
1292	1.316	0.0004	5	659.335	536.228	1674.546	145.450	2875.768	484.916	3319.941	2409.996	4522.775	360.048
1293	1.317	0.0004	5	665.958	536.499	1678.417	150.043	2875.775	463.403	3290.321	2496.133	4524.262	353.054
1294	1.318	0.0004	5	671.848	539.007	1680.773	153.527	2882.671	439.625	3225.217	2523.454	4527.008	337.240
1295	1.319	0.0004	5	676.089	540.508	1679.870	155.405	2894.008	420.066	3144.596	2449.136	4528.299	318.620
1296	1.320	0.0004	5	678.178	538.023	1674.843	155.009	2907.481	409.067	3071.436	2280.675	4526.198	301.497
1297	1.321	0.0004	5	678.323	529.994	1666.233	151.595	2921.476	407.941	3017.684	2065.596	4520.395	287.809
1298	1.322	0.0004	5	677.263	516.788	1655.848	145.011	2935.464	415.766	2981.155	1852.210	4511.954	277.972
1299	1.323	0.0004	5	675.861	500.707	1646.022	136.282	2950.374	429.813	2952.078	1671.553	4502.378	272.001
1300	1.324	0.0004	5	674.771	485.431	1638.639	127.335	2919.528	1540.617	2968.420	444.504	4492.715	269.986
1301	1.325	0.0004	5	674.247	474.584	1634.512	120.066	2876.369	1468.618	2991.064	450.318	4483.168	271.747
1302	1.326	0.0004	5	674.166	470.123	1633.364	115.634	2823.394	1455.100	3015.673	438.983	4473.236	276.139
1303	1.327	0.0004	5	674.222	471.425	1634.206	114.379	2767.191	1482.661	3037.374	412.786	4462.302	280.457
1304	1.328	0.0004	5	674.084	475.209	1635.732	116.082	2714.617	1521.346	3053.821	381.047	4450.524	280.524
1305	1.329	0.0004	5	673.415	476.311	1636.557	120.202	2672.439	1538.440	3064.799	352.230	4439.449	272.242
1306	1.330	0.0004	5	671.926	469.779	1635.401	125.959	2647.818	1508.950	3070.332	332.146	4431.336	254.295
1307	1.331	0.0004	5	669.581	453.678	1631.395	132.288	2645.818	1427.952	3069.968	324.433	4427.315	229.231
1308	1.332	0.0004	5	666.700	430.154	1624.458	137.913	2666.760	1311.682	3062.717	331.240	4426.383	201.550
1309	1.333	0.0004	5	663.744	403.658	1615.457	141.784	2707.615	1184.198	3046.985	353.975	4426.255	175.255
1310	1.334	0.0004	5	661.070	378.274	1605.891	143.530	2766.381	1063.225	3019.764	393.692	4424.888	152.853
1311	1.335	0.0002	5	658.811	356.192	1597.261	143.394	2848.136	957.110	2972.559	447.463	4421.370	135.380
1312	1.336	0.0002	5	656.878	337.688	1590.511	141.809	2894.859	450.963	2961.036	922.581	4415.959	122.738
1313	1.337	0.0002	5	655.066	321.989	1585.860	139.142	2848.462	391.799	3040.511	957.513	4409.611	114.158
1314	1.338	0.0002	5	653.224	308.223	1583.004	135.658	2824.483	356.056	3091.884	963.607	4403.381	108.687
1315	1.339	0.0002	5	651.359	295.856	1581.451	131.538	2808.516	343.412	3126.472	937.280	4397.979	105.566
1316	1.340	0.0002	5	649.580	284.668	1580.752	126.870	2795.965	349.171	3147.607	886.367	4393.617	104.402
1317	1.341	0.0002	5	647.969	274.673	1580.612	121.726	2784.458	370.955	3158.400	818.558	4390.069	105.167
1318	1.342	0.0002	5	646.510	266.151	1580.900	116.264	2771.822	407.665	3163.008	739.357	4386.781	108.105
1319	1.343	0.0002	5	645.127	259.677	1581.604	110.781	2755.650	457.120	3166.166	654.131	4382.951	113.569
1320	1.344	0.0002	5	643.749	256.000	1582.741	105.667	2734.561	513.917	3171.217	570.811	4377.615	121.739
1321	1.345	0.0002	5	642.334	255.697	1584.255	101.278	2709.990	571.124	3177.993	497.792	4369.862	132.208
1322	1.346	0.0002	5	640.813	258.722	1585.946	97.807	2685.500	623.152	3183.710	439.495	4359.259	143.585
1323	1.347	0.0002	5	639.016	264.125	1587.485	95.236	2664.992	664.799	3185.372	396.272	4346.341	153.636
1324	1.348	0.0002	5	636.669	270.310	1588.490	93.456	2651.797	690.736	3180.944	366.466	4332.712	160.283
1325	1.349	0.0002	5	633.512	275.835	1588.629	92.466	2647.829	698.006	3169.614	347.554	4320.362	162.803
1326	1.350	0.0002	5	629.433	280.135	1587.654	92.469	2652.728	687.834	3151.805	336.429	4310.663	162.037
1327	1.351	0.0002	5	624.507	283.562	1585.364	93.748	2663.933	664.050	3129.220	329.600	4303.854	159.644
1328	1.352	0.0002	5	618.932	286.897	1581.593	96.419	2677.901	630.054	3104.926	323.994	4299.268	157.444
1329	1.353	0.0002	5	612.909	290.939	1576.323	100.229	2691.790	587.424	3082.960	318.488	4295.890	157.309
1330	1.354	0.0002	5	606.556	296.560	1569.899	104.551	2704.774	537.439	3067.017	315.006	4292.930	161.374
1331	1.355	0.0002	5	599.885	305.161	1563.183	108.691	2718.087	483.691	3058.987	317.877	4290.373	172.295
1332	1.356	0.0002	5	592.833	319.001	1557.407	112.277	2733.733	431.709	3058.851	332.593	4289.535	193.594
1333	1.357	0.0002	5	585.279	340.899	1553.673	115.286	2752.895	384.887	3066.212	365.439	4293.396	229.967
1334	1.358	0.0002	5	576.989	373.092	1552.413	117.580	2774.267	341.956	3082.504	421.557	4306.127	286.609
1335	1.359	0.0002	5	567.512	415.781	1553.209	118.518	2793.504	301.958	3111.173	497.644	4331.192	366.065
1336	1.360	0.0002	5	556.088	466.988	1555.133	117.394	2807.554	269.727	3152.349	578.944	4368.635	463.522
1337	1.361	0.0002	5	541.526	524.506	1557.342	114.297	2817.713	249.380	3200.209	652.925	4413.900	566.499
1338	1.362	0.0002	5	521.834	587.751	1559.410	110.195	2826.692	240.826	3247.823	716.890	4459.913	662.051
1339	1.363	0.0002	5	493.701	657.202	1561.284	106.287	2836.776	242.678	3289.648	772.252	4500.874	743.205
1340	1.364	0.0002	5	452.413	731.660	1563.112	103.479	2849.753	253.465	3320.819	819.647	4534.355	807.806
1341	1.365	0.0002	5	393.461	803.805	1565.136	102.324	2866.690	270.738	3337.670	858.005	4561.003	854.419
1342	1.366	0.0002	5	318.098	855.505	1567.620	103.176	2886.970	289.990	3340.093	883.132	4583.617	880.498
1343	1.367	0.0002	5	243.362	861.372	1570.669	106.434	2907.387	305.784	3332.879	887.419	4606.053	883.625
1344	1.368	0.0002	5	202.472	809.334	1573.917	112.842	2923.433	315.362	3323.221	867.911	4631.169	865.554
1345	1.369	0.0002	5	205.844	718.087	1576.221	123.943	2932.853	320.254	3315.901	837.116	4659.221	834.840
1346	1.370	0.0002	5	224.552	623.212	1575.576	142.737	2937.402	324.115	3312.068	820.099	4688.287	803.319
1347	1.371	0.0002	5	237.842	553.201	1569.296	174.357	2940.867	330.793	3312.625	841.767	4714.882	781.434
1348	1.372	0.0002	5	241.036	523.530	1554.842	226.411	2945.665	346.456	3321.359	912.178	4734.199	779.666
1349	1.373	0.0002	5	233.002	543.289	1533.344	308.029	2952.047	396.166	3335.702	986.500	4741.812	810.907
1350	1.374	0.0001	5	209.194	623.402	1520.527	426.991	2967.958	568.573	3311.174	928.865	4733.530	884.808
1351	1.375	0.0001	5	169.864	757.997	1555.401	564.451	2940.017	1049.183	3279.593	616.480	4693.163	1023.692
1352	1.376	0.0001	5	199.211	840.006	1641.913	598.635	2897.991	1379.362	3304.504	476.728	4598.258	1190.252
1353	1.377	0.0001	5	309.887	799.998	1702.658	509.165	2921.424	1364.967	3316.487	438.450	4466.041	1171.436
1354	1.378	0.0002	5	412.706	705.318	1726.881	414.922	2900.655	1177.552	3328.491	407.887	4361.607	955.421
1355	1.379	0.0002	5	487.611	609.848	1737.186	345.006	2866.650	1007.664	3338.119	369.149	4301.974	736.598
1356	1.380	0.0002	5	535.490	537.828	1743.060	296.631	2848.126	895.820	3343.570	337.453	4269.221	584.845
1357	1.381	0.0002	5	562.826	492.156	1747.086	264.235	2844.926	834.008	3346.069	319.164	4250.207	488.816
1358	1.382	0.0002	5	576.546	466.336	1749.910	242.410	2852.086	806.584	3346.697	312.648	4237.898	427.125
1359	1.383	0.0002	5	581.843	453.302	1751.728	227.073	2866.196	800.946	3345.959	314.779	4228.526	385.038
1360	1.384	0.0002	5	581.845	448.239	1752.566	215.690	2885.394	809.204	3343.966	323.129	4220.165	354.295
1361	1.385	0.0002	5	578.024	448.579	1752.317	206.913	2908.727	827.529	3340.499	336.082	4211.895	330.621
1362	1.386	0.0002	5	570.674	453.401	1750.741	200.164	2935.766	855.617	3334.964	352.352	4203.287	311.888
1363	1.387	0.0002	5	559.292	462.964	1747.438	195.358	2966.425	897.170	3326.300	370.180	4194.107	297.097
1364	1.388	0.0002	5	542.938	478.394	1741.807	192.752	3000.692	961.959	3313.072	385.894	4184.164	285.878
1365	1.389	0.0002	5	520.799	501.449	1733.005	192.813	3037.296	1069.314	3294.754	392.286	4173.251	278.322
1366	1.390	0.0002	5	493.060	534.347	1720.062	195.979	3071.109	1247.988	3274.586	382.696	4161.152	275.074
1367	1.391	0.0002	5	461.717	579.754	1702.470	201.957	3096.872	1531.938	3257.125	363.137	4147.682	277.790
1368	1.392	0.0002	5	430.507	640.419	1681.652	208.399	3121.115	1978.694	3240.888	349.363	4132.623	290.080
1369	1.393	0.0002	5	404.132	715.580	1662.088	210.311	3178.777	2705.754	3218.114	358.325	4115.150	318.708
1370	1.394	0.0002	5	389.534	785.580	1648.259	202.890	3173.085	408.212	3414.514	3919.256	4091.965	372.534
1371	1.395	0.0002	5	396.401	797.435	1639.970	185.395	3078.403	491.588	4056.007	444.364	4828.008	5907.420
1372	1.396	0.0002	4	419.469	743.060	1635.743	161.088	2938.286	514.024	4020.036	487.150	--undefined--	--undefined--
1373	1.397	0.0002	4	443.089	687.931	1635.711	136.257	2827.558	446.385	4018.473	502.516	--undefined--	--undefined--
1374	1.398	0.0002	4	462.994	661.541	1638.213	115.676	2767.918	370.582	4041.773	510.196	--undefined--	--undefined--
1375	1.399	0.0002	4	480.119	652.927	1640.579	99.773	2736.925	318.087	4063.269	496.513	--undefined--	--undefined--
1376	1.400	0.0002	4	495.191	648.722	1641.509	87.450	2718.707	285.748	4072.818	463.520	--undefined--	--undefined--
1377	1.401	0.0002	4	508.352	644.001	1640.901	77.781	2706.716	266.035	4074.318	425.192	--undefined--	--undefined--
1378	1.402	0.0002	4	519.264	637.716	1638.976	70.125	2698.403	254.533	4072.827	390.801	--undefined--	--undefined--
1379	1.403	0.0002	4	527.267	629.604	1635.928	64.036	2692.587	249.705	4070.885	363.764	--undefined--	--undefined--
1380	1.404	0.0002	4	531.750	619.564	1631.913	59.191	2688.508	251.574	4069.435	344.718	--undefined--	--undefined--
1381	1.405	0.0002	4	532.512	607.585	1627.110	55.341	2685.474	260.772	4068.716	333.339	--undefined--	--undefined--
1382	1.406	0.0002	4	529.937	594.007	1621.802	52.295	2682.744	277.781	4068.546	328.976	--undefined--	--undefined--
1383	1.407	0.0002	4	524.871	579.914	1616.403	49.939	2679.609	302.157	4068.416	330.741	--undefined--	--undefined--
1384	1.408	0.0002	4	518.291	567.106	1611.404	48.282	2675.659	331.937	4067.728	337.476	--undefined--	--undefined--
1385	1.409	0.0002	4	511.006	557.523	1607.240	47.451	2671.121	363.683	4066.232	347.958	--undefined--	--undefined--
1386	1.410	0.0002	4	503.552	552.657	1604.158	47.653	2666.932	393.387	4064.321	361.473	--undefined--	--undefined--
1387	1.411	0.0002	4	496.233	553.355	1602.166	49.118	2664.368	417.796	4062.902	378.469	--undefined--	--undefined--
1388	1.412	0.0002	4	489.186	559.820	1601.060	52.077	2664.469	435.447	4062.929	400.740	--undefined--	--undefined--
1389	1.413	0.0002	4	482.419	571.551	1600.496	56.748	2667.603	446.912	4065.025	431.049	--undefined--	--undefined--
1390	1.414	0.0002	4	475.848	587.194	1600.043	63.307	2673.347	454.293	4069.402	472.716	--undefined--	--undefined--
1391	1.415	0.0002	4	469.341	604.694	1599.207	71.818	2680.629	460.449	4075.959	529.368	--undefined--	--undefined--
1392	1.416	0.0002	4	462.732	622.064	1597.437	82.171	2687.974	468.461	4084.345	604.330	--undefined--	--undefined--
1393	1.417	0.0002	4	455.778	638.499	1594.195	94.030	2693.728	481.332	4093.712	698.824	--undefined--	--undefined--
1394	1.418	0.0002	4	448.096	654.872	1589.146	106.842	2696.090	501.799	4102.052	808.934	--undefined--	--undefined--
1395	1.419	0.0002	4	439.163	673.007	1582.472	119.968	2693.020	532.332	4105.479	923.284	--undefined--	--undefined--
1396	1.420	0.0002	4	428.425	694.403	1575.124	132.985	2682.349	575.290	4098.765	1024.934	--undefined--	--undefined--
1397	1.421	0.0002	4	415.541	719.296	1568.774	146.039	2662.338	632.621	4077.906	1098.480	--undefined--	--undefined--
1398	1.422	0.0002	4	400.857	745.774	1565.366	159.783	2632.822	704.329	4042.644	1136.902	--undefined--	--undefined--
1399	1.423	0.0002	4	386.062	768.873	1566.435	174.567	2597.089	785.836	3997.020	1141.424	--undefined--	--undefined--
1400	1.424	0.0002	4	374.135	781.633	1572.426	189.380	2563.549	866.816	3949.546	1117.926	--undefined--	--undefined--
1401	1.425	0.0002	4	367.567	778.544	1582.127	201.787	2542.678	934.173	3910.847	1078.662	--undefined--	--undefined--
1402	1.426	0.0002	4	366.306	757.200	1592.573	209.713	2536.771	977.777	3886.468	1046.112	--undefined--	--undefined--
1403	1.427	0.0002	4	367.690	719.391	1600.179	213.414	2535.180	996.563	3873.547	1046.958	--undefined--	--undefined--
1404	1.428	0.0001	5	368.115	675.206	1602.686	214.659	2527.800	993.256	3864.152	1089.753	5055.270	2563.696
1405	1.429	0.0001	5	365.168	638.228	1599.679	214.431	2516.610	965.985	3850.480	1143.154	4745.631	2165.324
1406	1.430	0.0001	5	358.085	614.775	1591.452	212.266	2507.530	917.780	3836.210	1161.500	4693.363	1918.966
1407	1.431	0.0001	5	346.925	602.989	1578.460	206.621	2502.025	857.810	3828.161	1146.620	4733.728	1780.974
1408	1.432	0.0001	5	332.199	597.679	1561.916	195.693	2499.907	794.809	3822.889	1125.957	4803.039	1668.140
1409	1.433	0.0001	5	314.953	594.020	1544.171	178.981	2501.942	735.858	3816.494	1116.730	4869.572	1543.289
1410	1.434	0.00006	5	296.566	589.827	1528.051	158.429	2508.946	686.735	3808.933	1125.915	4920.993	1412.067
1411	1.435	0.00006	5	278.139	586.260	1515.629	137.631	2520.490	651.042	3802.617	1156.406	4958.331	1296.107
1412	1.436	0.00004	5	260.075	586.175	1507.548	119.740	2534.614	629.137	3800.692	1208.504	4987.716	1212.943
1413	1.437	0.00002	5	242.377	591.165	1503.254	106.146	2548.419	618.112	3805.912	1277.553	5015.326	1169.281
1414	1.438	0.00002	5	225.411	599.671	1501.662	96.637	2559.019	613.172	3819.633	1351.856	5046.414	1162.519
1415	1.439	0.00002	5	210.422	607.651	1501.706	90.265	2564.418	609.713	3840.625	1414.267	5085.726	1184.684
1416	1.440	0.00002	5	199.132	611.119	1502.589	86.042	2564.099	604.757	3865.023	1447.989	5138.369	1226.917
1417	1.441	0.00002	5	192.475	608.523	1503.802	83.212	2559.204	597.057	3888.996	1443.078	5213.956	1285.318
1418	1.442	0.00001	5	189.664	601.309	1505.066	81.251	2552.238	586.601	3912.073	1398.196	5356.842	1366.905
1419	1.443	0.00001	4	188.631	592.674	1506.269	79.771	2546.312	574.242	3936.610	1316.912	--undefined--	--undefined--
1420	1.444	0.00001	4	187.124	585.910	1507.419	78.486	2544.158	561.382	3963.317	1204.537	--undefined--	--undefined--
1421	1.445	0.00001	4	183.352	583.432	1508.581	77.222	2547.285	549.471	3988.484	1071.071	--undefined--	--undefined--
1422	1.446	0.00001	4	176.104	586.463	1509.805	75.940	2555.554	539.588	4007.667	934.507	--undefined--	--undefined--
1423	1.447	0.00001	4	164.896	594.733	1511.079	74.728	2567.249	532.515	4020.575	813.825	--undefined--	--undefined--
1424	1.448	0.00001	4	150.536	605.909	1512.334	73.752	2579.643	529.138	4030.216	720.256	--undefined--	--undefined--
1425	1.449	0.00001	4	135.915	615.696	1513.502	73.205	2589.995	530.362	4039.800	656.201	--undefined--	--undefined--
1426	1.450	0.00001	4	125.538	619.864	1514.577	73.284	2596.567	536.062	4051.042	617.551	--undefined--	--undefined--
1427	1.451	0.00001	4	122.222	617.251	1515.635	74.177	2599.177	544.063	4063.812	596.044	--undefined--	--undefined--
1428	1.452	0.00001	4	124.383	610.267	1516.764	76.013	2598.953	550.670	4076.660	582.432	--undefined--	--undefined--
1429	1.453	0.00001	4	128.635	601.985	1517.969	78.734	2597.255	552.641	4087.952	571.221	--undefined--	--undefined--
1430	1.454	0.000008	4	133.287	593.426	1519.137	81.991	2594.624	548.693	4096.795	563.374	--undefined--	--undefined--
1431	1.455	0.000008	4	138.472	583.646	1520.112	85.180	2590.791	539.432	4102.834	563.625	--undefined--	--undefined--
1432	1.456	0.000008	4	144.683	571.457	1520.834	87.636	2585.350	526.500	4105.463	576.131	--undefined--	--undefined--
1433	1.457	0.00004	4	151.787	556.788	1521.397	88.882	2578.156	511.859	4103.306	602.295	--undefined--	--undefined--
1434	1.458	0.00004	4	159.059	540.847	1521.999	88.803	2569.323	497.394	4094.154	639.907	--undefined--	--undefined--
1435	1.459	0.00004	4	165.769	525.311	1522.808	87.645	2559.103	484.673	4075.567	681.937	--undefined--	--undefined--
1436	1.460	0.00004	4	171.572	511.438	1523.875	85.880	2547.810	474.801	4046.841	715.797	--undefined--	--undefined--
1437	1.461	0.00004	4	176.417	499.836	1525.166	84.032	2535.829	468.450	4011.789	727.687	--undefined--	--undefined--
1438	1.462	0.00004	5	180.207	490.890	1526.641	82.563	2523.665	466.101	3977.984	712.739	5289.657	1065.338
1439	1.463	0.00004	5	182.534	485.304	1528.311	81.824	2512.001	468.240	3951.439	678.341	5177.179	898.405
1440	1.464	0.00004	5	182.706	484.185	1530.241	82.015	2501.825	475.218	3933.744	636.962	5125.625	779.903
1441	1.465	0.00004	5	179.988	488.562	1532.521	83.145	2494.568	486.755	3923.469	599.445	5100.057	701.737
1442	1.466	0.00004	5	173.891	498.693	1535.242	85.032	2492.049	501.482	3918.344	572.653	5090.244	657.836
1443	1.467	0.00004	5	164.298	513.772	1538.468	87.386	2495.904	517.076	3916.584	559.380	5092.119	643.433
1444	1.468	0.00004	5	151.255	532.462	1542.232	89.987	2506.623	531.294	3917.443	559.051	5104.222	653.929
1445	1.469	0.00004	5	134.164	554.106	1546.543	92.860	2522.957	543.565	3921.412	569.048	5126.371	683.237
1446	1.470	0.00004	5	109.820	579.943	1551.384	96.334	2542.437	556.241	3930.364	587.020	5157.574	721.285
1447	1.471	0.00004	5	63.760	613.828	1556.700	101.014	2562.703	574.745	3947.911	613.701	5191.720	753.264
1448	1.472	0.00004	4	1562.360	107.754	2582.567	606.722	3979.952	653.296	5216.952	769.350	--undefined--	--undefined--
1449	1.473	0.00005	4	1568.051	117.518	2601.464	660.343	4033.352	707.616	5229.026	781.298	--undefined--	--undefined--
1450	1.474	0.00005	4	1573.032	131.011	2616.741	742.383	4109.869	767.371	5238.515	815.448	--undefined--	--undefined--
1451	1.475	0.00005	4	1576.036	148.553	2621.582	858.427	4200.120	813.701	5258.925	888.355	--undefined--	--undefined--
1452	1.476	0.00009	4	1575.563	170.152	2605.479	1012.930	4286.882	834.948	5303.121	1000.098	--undefined--	--undefined--
1453	1.477	0.00009	4	1570.504	194.873	2553.996	1200.829	4356.282	838.272	5406.028	1142.769	--undefined--	--undefined--
1454	1.478	0.00009	3	1560.971	219.870	2449.976	1379.450	4404.616	840.321	--undefined--	--undefined--	--undefined--	--undefined--
1455	1.479	0.00009	3	1549.138	241.173	2308.634	1440.511	4434.725	853.639	--undefined--	--undefined--	--undefined--	--undefined--
1456	1.480	0.00009	3	1539.084	257.158	2207.770	1374.615	4448.634	885.148	--undefined--	--undefined--	--undefined--	--undefined--
1457	1.481	0.00009	3	1534.992	270.736	2165.594	1302.504	4441.225	939.930	--undefined--	--undefined--	--undefined--	--undefined--
1458	1.482	0.00009	4	1540.000	286.796	2159.203	1266.751	4393.877	1006.262	5298.588	1430.189	--undefined--	--undefined--
1459	1.483	0.00009	4	1557.124	307.817	2181.375	1259.486	4299.084	1011.099	5136.810	1093.985	--undefined--	--undefined--
1460	1.484	0.00009	4	1589.790	328.602	2238.506	1240.863	4195.920	921.612	5096.269	863.510	--undefined--	--undefined--
1461	1.485	0.00009	4	1637.234	332.970	2315.044	1145.531	4106.703	784.856	5083.662	716.750	--undefined--	--undefined--
1462	1.486	0.00009	4	1689.185	310.782	2373.071	990.662	4034.835	640.730	5080.519	633.887	--undefined--	--undefined--
1463	1.487	0.00009	5	264.343	695.989	1736.394	273.680	2408.718	842.508	3982.083	514.339	5083.901	613.135
1464	1.488	0.00009	5	339.648	472.461	1777.608	236.315	2435.056	733.501	3950.511	417.820	5097.774	662.326
1465	1.489	0.00009	5	364.948	336.503	1813.861	205.354	2461.681	668.083	3939.653	349.700	5135.459	790.459
1466	1.490	0.00009	5	375.295	253.668	1845.175	181.959	2491.275	635.549	3944.106	299.857	5229.201	989.975
1467	1.491	0.00009	4	380.117	201.449	1870.991	165.154	2520.498	619.484	3955.148	260.150	--undefined--	--undefined--
1468	1.492	0.00009	4	382.358	166.263	1891.350	153.676	2543.768	606.956	3966.344	228.969	--undefined--	--undefined--
1469	1.493	0.0001	4	383.072	140.910	1907.156	146.390	2557.979	591.236	3975.659	205.703	--undefined--	--undefined--
1470	1.494	0.0001	4	382.768	121.770	1919.646	142.292	2563.579	568.671	3983.006	188.218	--undefined--	--undefined--
1471	1.495	0.0001	4	381.772	106.915	1929.989	140.578	2562.990	537.475	3988.552	174.396	--undefined--	--undefined--
1472	1.496	0.0001	4	380.330	95.223	1939.223	140.592	2559.222	498.801	3992.408	162.981	--undefined--	--undefined--
1473	1.497	0.0001	5	378.651	85.971	1948.305	141.716	2554.915	456.800	3994.678	153.429	5276.287	1348.670
1474	1.498	0.0001	5	376.913	78.620	1958.073	143.307	2551.742	416.719	3995.537	145.522	5128.116	1295.857
1475	1.499	0.0001	5	375.259	72.720	1969.126	144.654	2550.386	382.626	3995.293	139.097	5021.760	1260.964
1476	1.500	0.0001	5	373.778	67.897	1981.659	144.950	2550.957	356.400	3994.392	133.931	4934.006	1245.695
1477	1.501	0.0001	5	372.500	63.884	1995.348	143.437	2553.357	337.970	3993.341	129.746	4858.431	1248.719
1478	1.502	0.0001	5	371.418	60.530	2009.372	139.732	2557.390	326.032	3992.580	126.254	4793.650	1266.173
1479	1.503	0.0001	5	370.505	57.774	2022.662	134.116	2562.693	318.786	3992.370	123.190	4741.713	1292.204
1480	1.504	0.0001	5	369.739	55.589	2034.327	127.446	2568.746	314.574	3992.776	120.263	4708.396	1320.959
1481	1.505	0.0001	5	369.104	53.936	2043.967	120.735	2575.006	312.254	3993.733	117.109	4702.267	1348.892
1482	1.506	0.0001	5	368.582	52.706	2051.667	114.778	2580.923	311.161	3995.169	113.441	4729.926	1373.690
1483	1.507	0.0001	5	368.150	51.705	2057.775	110.059	2585.772	310.790	3997.054	109.328	4789.588	1390.470
1484	1.508	0.0001	5	367.797	50.717	2062.754	106.835	2588.741	310.487	3999.284	105.110	4869.727	1392.419
1485	1.509	0.0001	5	367.536	49.605	2067.115	105.232	2589.326	309.260	4001.571	101.046	4954.911	1376.557
1486	1.510	0.0001	5	367.395	48.349	2071.330	105.301	2587.645	305.834	4003.506	97.229	5032.815	1346.508
1487	1.511	0.0001	5	367.381	47.011	2075.717	107.023	2584.452	299.087	4004.734	93.783	5096.768	1309.536
1488	1.512	0.0001	5	367.456	45.680	2080.391	110.292	2580.905	288.691	4005.109	90.982	5143.862	1272.093
1489	1.513	0.0001	5	367.545	44.456	2085.328	114.888	2578.169	275.454	4004.744	89.215	5171.658	1237.118
1490	1.514	0.0001	5	367.571	43.421	2090.487	120.470	2577.042	261.054	4003.990	88.903	5176.682	1203.548
1491	1.515	0.0001	5	367.487	42.624	2095.939	126.576	2577.825	247.387	4003.370	90.462	5156.814	1167.737
1492	1.516	0.0001	5	367.280	42.062	2101.961	132.607	2580.419	236.021	4003.491	94.314	5115.145	1126.301
1493	1.517	0.0001	5	366.965	41.686	2109.051	137.823	2584.512	227.980	4004.937	100.881	5059.778	1079.060
1494	1.518	0.0001	5	366.567	41.408	2117.802	141.384	2589.751	223.757	4008.191	110.504	5000.037	1030.081
1495	1.519	0.0001	5	366.121	41.124	2128.596	142.480	2595.863	223.352	4013.613	123.276	4943.400	986.007
1496	1.520	0.0001	5	365.671	40.727	2141.265	140.591	2602.728	226.267	4021.415	138.771	4894.468	953.195
1497	1.521	0.0001	5	365.256	40.129	2155.000	135.815	2610.332	231.548	4031.574	155.812	4855.152	935.654
1498	1.522	0.0001	5	364.902	39.296	2168.655	129.010	2618.596	238.042	4043.633	172.530	4825.235	934.378
1499	1.523	0.0001	5	364.604	38.262	2181.252	121.542	2627.239	244.864	4056.587	187.005	4802.917	947.631
1500	1.524	0.0001	5	364.335	37.133	2192.301	114.781	2635.821	251.773	4069.122	198.275	4785.262	971.874
1501	1.525	0.0001	5	364.062	36.052	2201.773	109.729	2643.912	259.162	4080.189	206.932	4768.670	1003.258
1502	1.526	0.0001	5	363.761	35.156	2209.893	106.933	2651.198	267.702	4089.469	214.765	4749.504	1038.968
1503	1.527	0.0001	5	363.422	34.532	2216.939	106.609	2657.441	277.925	4097.365	223.872	4724.676	1077.466
1504	1.528	0.0001	5	363.036	34.210	2223.136	108.818	2662.370	289.934	4104.666	235.970	4691.942	1117.527
1505	1.529	0.0001	5	362.597	34.167	2228.644	113.583	2665.594	303.239	4112.219	252.122	4649.968	1156.837
1506	1.530	0.0001	5	362.114	34.337	2233.601	120.939	2666.608	316.690	4120.705	272.687	4598.586	1190.988
1507	1.531	0.0001	5	361.612	34.619	2238.195	130.886	2664.925	328.602	4130.478	297.320	4539.508	1213.702
1508	1.532	0.0001	5	361.139	34.898	2242.714	143.304	2660.329	337.223	4141.369	325.058	4477.067	1218.775
1509	1.533	0.0001	5	360.743	35.076	2247.547	157.872	2653.106	341.501	4152.528	354.860	4417.615	1202.483
1510	1.534	0.0001	5	360.453	35.107	2253.124	174.081	2644.004	341.702	4162.595	386.842	4366.741	1163.617
1511	1.535	0.0001	5	360.271	35.018	2259.794	191.304	2633.882	339.327	4170.427	423.616	4326.115	1101.003
1512	1.536	0.0001	5	360.184	34.877	2267.681	208.714	2623.422	336.274	4175.705	471.201	4293.263	1011.399
1513	1.537	0.0001	5	360.181	34.755	2276.489	224.990	2613.178	333.794	4177.887	544.068	4265.363	884.354
1514	1.538	0.0001	5	360.245	34.686	2285.258	238.153	2603.835	331.787	4142.555	670.438	4275.208	696.466
1515	1.539	0.0001	5	360.349	34.662	2292.302	246.139	2596.362	328.706	4080.846	682.370	4312.133	620.279
1516	1.540	0.0001	5	360.447	34.661	2295.775	247.943	2591.752	322.315	4041.768	659.393	4328.679	580.287
1517	1.541	0.0001	5	360.487	34.673	2294.768	244.257	2590.429	311.241	4016.648	625.701	4334.910	556.130
1518	1.542	0.0001	5	360.438	34.711	2289.890	236.938	2591.987	296.151	4002.381	588.840	4334.473	544.031
1519	1.543	0.0001	5	360.291	34.792	2282.741	228.134	2595.594	279.350	3996.926	553.576	4329.092	542.421
1520	1.544	0.0001	5	360.057	34.924	2275.007	219.778	2600.508	263.409	3998.620	522.650	4319.559	550.576
1521	1.545	0.0001	5	359.754	35.108	2267.998	213.382	2606.216	250.227	4006.118	496.821	4306.096	568.269
1522	1.546	0.0001	5	359.399	35.337	2262.650	209.988	2612.274	240.808	4018.241	474.954	4288.729	595.503
1523	1.547	0.0001	5	359.012	35.588	2259.682	210.175	2618.111	235.422	4033.505	454.292	4267.945	632.076
1524	1.548	0.0001	5	358.616	35.808	2259.650	214.069	2622.975	233.782	4049.340	431.883	4245.634	676.153
1525	1.549	0.0001	5	358.233	35.904	2262.840	221.350	2626.079	235.115	4062.357	408.315	4224.893	720.966
1526	1.550	0.0001	5	357.875	35.763	2269.008	231.294	2626.893	238.101	4071.034	388.252	4207.290	755.188
1527	1.551	0.0001	5	357.543	35.301	2277.177	242.931	2625.435	240.861	4076.324	374.350	4192.141	770.259
1528	1.552	0.0001	5	357.241	34.510	2285.718	255.259	2622.398	241.288	4079.318	365.043	4178.720	763.995
1529	1.553	0.0001	5	356.981	33.478	2292.809	267.378	2618.991	237.930	4080.207	356.658	4167.213	739.530
1530	1.554	0.0001	5	356.784	32.362	2297.136	278.541	2616.437	230.943	4078.682	346.017	4158.214	702.766
1531	1.555	0.0001	5	356.655	31.335	2298.380	288.313	2615.391	222.154	4074.730	332.588	4152.022	659.154
1532	1.556	0.0001	5	356.572	30.537	2297.131	296.687	2615.744	213.988	4068.717	318.558	4148.962	612.058
1533	1.557	0.0001	5	356.487	30.039	2294.378	303.778	2616.936	208.299	4060.618	306.197	4150.476	564.018
1534	1.558	0.0001	5	356.341	29.834	2291.064	309.205	2618.390	205.926	4049.991	294.550	4158.820	519.275
1535	1.559	0.0001	5	356.086	29.839	2287.874	311.783	2619.773	206.812	4037.786	279.966	4174.433	483.022
1536	1.560	0.0001	5	355.692	29.928	2285.152	309.852	2621.100	210.210	4026.405	261.795	4195.174	456.018
1537	1.561	0.0001	5	355.140	29.975	2282.899	302.077	2622.742	214.851	4017.251	242.892	4218.655	434.818
1538	1.562	0.0001	5	354.422	29.910	2280.948	288.264	2625.333	219.230	4010.386	226.138	4242.922	416.180
1539	1.563	0.0001	5	353.546	29.749	2279.254	269.701	2629.540	222.094	4005.313	213.315	4266.213	398.834
1540	1.564	0.0001	5	352.541	29.591	2278.042	248.764	2635.795	222.982	4001.395	205.222	4287.104	383.271
1541	1.565	0.0001	5	351.448	29.566	2277.656	228.019	2644.144	222.366	3998.022	201.832	4304.815	370.818
1542	1.566	0.0001	5	350.314	29.782	2278.276	209.395	2654.268	221.211	3994.727	202.392	4319.334	362.652
1543	1.567	0.0001	5	349.172	30.285	2279.777	193.847	2665.581	220.316	3991.271	205.592	4331.243	359.131
1544	1.568	0.0001	5	348.047	31.057	2281.821	181.505	2677.299	219.932	3987.664	209.909	4341.336	359.491
1545	1.569	0.0001	5	346.962	32.027	2284.038	172.085	2688.504	219.839	3984.081	214.048	4350.210	361.831
1546	1.570	0.00009	5	345.940	33.103	2286.161	165.261	2698.261	219.708	3980.728	217.275	4358.035	363.486
1547	1.571	0.00009	5	344.995	34.201	2288.062	160.875	2705.801	219.420	3977.728	219.429	4364.601	361.844
1548	1.572	0.00009	5	344.115	35.267	2289.702	158.958	2710.690	219.146	3975.087	220.633	4369.622	355.332
1549	1.573	0.00009	5	343.262	36.290	2291.062	159.614	2712.895	219.178	3972.733	220.983	4373.057	344.006
1550	1.574	0.00009	5	342.389	37.296	2292.100	162.856	2712.753	219.694	3970.610	220.486	4375.203	329.418
1551	1.575	0.00009	5	341.463	38.331	2292.748	168.468	2710.886	220.601	3968.748	219.292	4376.549	313.935
1552	1.576	0.00009	5	340.476	39.443	2292.915	175.962	2708.114	221.548	3967.235	217.984	4377.536	299.897
1553	1.577	0.00009	5	339.432	40.675	2292.504	184.686	2705.301	222.055	3966.122	217.648	4378.418	288.973
1554	1.578	0.00009	5	338.328	42.068	2291.432	194.038	2703.172	221.701	3965.325	219.650	4379.261	281.880
1555	1.579	0.00009	5	337.147	43.680	2289.686	203.659	2702.120	220.292	3964.604	225.282	4380.026	278.339
1556	1.580	0.00009	5	335.869	45.579	2287.397	213.442	2702.123	217.974	3963.580	235.456	4380.659	277.167
1557	1.581	0.00009	5	334.491	47.825	2284.898	223.385	2702.817	215.299	3961.743	250.537	4381.138	276.531
1558	1.582	0.00009	5	333.035	50.438	2282.720	233.424	2703.705	213.195	3958.466	270.290	4381.450	274.461
1559	1.583	0.00009	5	331.536	53.388	2281.496	243.370	2704.366	212.804	3953.065	293.893	4381.544	269.565
1560	1.584	0.00009	5	330.036	56.589	2281.831	252.934	2704.547	215.215	3944.984	319.878	4381.315	261.560
1561	1.585	0.00009	5	328.593	59.896	2284.173	261.700	2704.090	221.148	3934.148	345.865	4380.656	251.388
1562	1.586	0.00007	5	327.292	63.080	2288.704	269.088	2702.770	230.631	3921.430	368.259	4379.518	240.962
1563	1.587	0.00007	5	326.253	65.825	2295.296	274.446	2700.198	242.821	3908.911	382.683	4377.912	232.667
1564	1.588	0.00007	5	325.608	67.776	2303.569	277.343	2695.870	256.173	3899.316	385.616	4375.930	228.631
1565	1.589	0.00007	5	325.459	68.648	2312.996	277.808	2689.425	268.997	3894.636	376.297	4373.845	229.984
1566	1.590	0.00007	5	325.841	68.317	2322.930	276.210	2680.976	279.992	3894.990	357.176	4372.145	236.392
1567	1.591	0.00007	5	326.712	66.840	2332.507	272.835	2671.391	288.317	3898.787	332.663	4371.338	246.004
1568	1.592	0.00007	5	327.971	64.403	2340.620	267.530	2662.324	293.369	3903.854	307.393	4371.580	255.830
1569	1.593	0.00007	5	329.478	61.256	2346.138	259.797	2655.843	294.728	3908.483	285.016	4372.439	262.584
1570	1.594	0.00007	5	331.073	57.674	2348.336	249.297	2653.639	292.342	3911.801	267.637	4373.027	263.812
1571	1.595	0.00007	5	332.585	53.939	2347.230	236.364	2656.290	286.662	3913.627	255.780	4372.490	258.770
1572	1.596	0.00007	5	333.869	50.313	2343.531	222.036	2663.137	278.644	3914.192	248.752	4370.442	248.604
1573	1.597	0.00007	5	334.838	47.001	2338.275	207.603	2672.847	269.681	3913.971	245.238	4367.042	235.814
1574	1.598	0.00007	5	335.490	44.117	2332.500	194.123	2684.119	261.400	3913.584	243.982	4362.707	223.337
1575	1.599	0.00007	5	335.887	41.680	2327.058	182.240	2696.120	255.358	3913.676	244.356	4357.737	213.670
1576	1.600	0.00007	5	336.117	39.656	2322.528	172.229	2708.547	252.749	3914.753	246.578	4352.097	208.399
1577	1.601	0.00007	5	336.243	38.000	2319.147	164.141	2721.438	254.204	3917.087	251.520	4345.431	208.130
1578	1.602	0.00007	5	336.296	36.690	2316.843	157.923	2734.805	259.655	3920.720	260.229	4337.269	212.569
1579	1.603	0.00004	5	336.283	35.735	2315.343	153.516	2748.197	268.239	3925.475	273.352	4327.363	220.490
1580	1.604	0.00004	5	336.204	35.161	2314.360	150.924	2760.393	278.412	3930.852	290.565	4316.087	229.701
1581	1.605	0.00004	5	336.045	34.995	2313.704	150.198	2769.541	288.417	3935.859	310.177	4304.723	237.376
1582	1.606	0.00004	5	335.768	35.255	2313.235	151.292	2773.885	296.958	3939.023	329.167	4295.310	241.034
1583	1.607	0.00004	5	335.310	35.946	2312.709	153.844	2772.682	303.571	3938.892	343.873	4289.913	239.622
1584	1.608	0.00004	5	334.600	37.053	2311.724	157.014	2766.658	308.515	3934.849	351.355	4289.624	233.703
1585	1.609	0.00004	5	333.604	38.540	2309.878	159.477	2757.747	312.516	3927.516	350.785	4294.073	224.673
1586	1.610	0.00004	5	332.337	40.350	2307.024	159.726	2748.447	316.660	3918.353	343.868	4301.749	214.081
1587	1.611	0.00004	5	330.860	42.410	2303.388	156.635	2741.158	322.312	3908.857	334.021	4310.740	203.485
1588	1.612	0.00004	5	329.251	44.646	2299.430	150.007	2737.726	330.778	3899.964	325.079	4319.345	194.375
1589	1.613	0.00004	5	327.583	46.993	2295.562	140.710	2739.225	342.743	3891.937	320.275	4326.364	187.934
1590	1.614	0.00004	5	325.931	49.391	2291.977	130.325	2745.815	357.795	3884.664	321.734	4331.087	184.826
1591	1.615	0.00004	5	324.400	51.771	2288.667	120.617	2756.578	374.253	3878.091	330.264	4333.187	185.087
1592	1.616	0.00004	5	323.134	54.034	2285.527	113.095	2769.465	389.538	3872.503	345.263	4332.664	188.095
1593	1.617	0.00004	5	322.290	56.053	2282.393	108.799	2781.723	401.032	3868.514	364.850	4329.871	192.645
1594	1.618	0.00004	5	321.958	57.692	2278.971	108.332	2790.805	406.998	3866.748	386.436	4325.527	197.200
1595	1.619	0.00004	5	322.094	58.874	2274.756	112.047	2795.260	406.878	3867.440	407.681	4320.592	200.329
1596	1.620	0.00004	5	322.508	59.656	2268.980	120.173	2795.071	400.906	3870.219	427.320	4315.989	201.115
1597	1.621	0.00004	5	322.937	60.247	2260.624	132.652	2791.474	389.569	3874.158	445.331	4312.310	199.295
1598	1.622	0.00004	5	323.155	60.918	2248.602	148.392	2786.552	373.588	3877.967	462.379	4309.750	195.106
1599	1.623	0.00004	5	323.056	61.843	2232.446	164.094	2782.651	354.799	3880.218	479.188	4308.237	189.075
1600	1.624	0.00004	5	322.661	63.000	2213.620	174.122	2781.433	337.315	3879.495	496.689	4307.575	181.888
1601	1.625	0.00004	5	322.089	64.234	2196.082	173.684	2782.923	326.997	3874.497	516.679	4307.510	174.257
1602	1.626	0.00003	5	321.487	65.440	2183.983	163.225	2785.699	328.615	3864.287	541.138	4307.934	166.704
1603	1.627	0.00003	5	320.964	66.614	2178.455	147.901	2788.165	343.549	3848.899	570.316	4309.075	159.443
1604	1.628	0.00003	5	320.552	67.744	2177.707	133.069	2789.369	370.242	3829.675	602.859	4311.270	152.431
1605	1.629	0.00003	5	320.231	68.784	2179.370	121.792	2788.912	406.053	3808.686	638.215	4314.520	145.479
1606	1.630	0.00003	5	319.964	69.730	2181.894	115.248	2786.694	448.593	3787.732	678.151	4318.342	138.403
1607	1.631	0.00003	5	319.701	70.657	2184.637	113.814	2782.897	496.060	3767.819	726.297	4321.988	131.203
1608	1.632	0.00003	5	319.356	71.709	2187.546	117.751	2778.149	546.838	3749.307	786.836	4324.749	124.114
1609	1.633	0.00003	5	318.796	73.055	2190.889	127.461	2773.669	598.867	3732.365	863.190	4326.163	117.545
1610	1.634	0.00003	5	317.847	74.846	2195.116	143.512	2771.108	649.630	3717.173	956.650	4326.059	112.005
1611	1.635	0.00003	5	316.325	77.192	2200.791	166.502	2772.055	697.455	3703.437	1064.976	4324.543	108.053
1612	1.636	0.00003	5	314.063	80.173	2208.532	196.612	2777.833	743.498	3689.247	1182.356	4321.914	106.284
1613	1.637	0.00003	5	310.942	83.863	2218.742	232.509	2790.375	791.920	3670.187	1302.764	4318.511	107.363
1614	1.638	0.00002	5	306.953	88.280	2230.716	269.819	2813.758	845.565	3640.303	1425.783	4314.522	112.157
1615	1.639	0.00002	5	302.303	93.297	2241.410	301.200	2854.098	896.602	3595.767	1561.402	4309.813	122.009
1616	1.640	0.00002	5	297.530	98.677	2246.300	320.421	2913.320	918.097	3541.458	1734.055	4303.721	139.078
1617	1.641	0.00002	5	293.527	104.403	2243.582	327.026	2975.904	880.792	3500.368	1978.584	4294.684	166.439
1618	1.642	0.00002	5	291.367	110.942	2235.905	325.841	3017.318	802.821	3506.745	2317.642	4279.550	207.064
1619	1.643	0.00002	5	291.946	119.065	2226.704	322.901	3034.834	723.663	3590.689	2812.582	4253.197	259.273
1620	1.644	0.00001	5	295.668	129.372	2216.920	322.492	3036.463	657.078	3833.846	3666.433	4212.284	307.336
1621	1.645	0.00001	5	302.326	141.720	2204.938	327.812	3028.700	606.287	4166.245	326.899	5122.147	5568.298
1622	1.646	0.00001	4	311.173	154.703	2187.945	342.609	3016.025	574.451	4132.686	319.203	--undefined--	--undefined--
1623	1.647	0.00001	4	321.086	165.915	2162.932	369.939	3000.914	562.623	4116.339	304.930	--undefined--	--undefined--
1624	1.648	0.00001	4	330.838	173.205	2127.261	408.983	2984.949	568.183	4111.474	297.103	--undefined--	--undefined--
1625	1.649	0.00001	4	339.374	175.915	2080.059	452.716	2970.522	587.698	4111.935	300.971	--undefined--	--undefined--
1626	1.650	0.000005	4	345.883	175.210	2024.614	489.306	2960.918	620.622	4114.333	319.700	--undefined--	--undefined--
1627	1.651	0.000005	5	349.684	173.412	1968.817	510.000	2958.725	670.115	4117.931	356.199	4225.183	3936.541
1628	1.652	0.000005	5	350.154	172.903	1920.445	516.050	2964.771	740.454	3909.942	2883.877	4124.218	412.240
1629	1.653	0.000005	5	346.858	175.371	1882.056	514.065	2978.724	833.543	3772.777	2202.754	4136.729	485.396
1630	1.654	0.000005	5	339.737	181.646	1851.207	507.336	3000.426	944.973	3686.265	1723.758	4159.010	563.027
1631	1.655	0.000005	5	329.133	191.901	1823.308	493.315	3032.183	1058.003	3625.662	1402.277	4186.709	624.930
1632	1.656	0.000005	5	315.670	205.947	1794.161	466.546	3083.304	1142.657	3587.496	1223.655	4207.912	669.151
1633	1.657	0.000005	5	300.107	223.574	1762.047	423.922	3169.855	1160.739	3560.544	1186.541	4215.806	709.281
1634	1.658	0.000005	5	283.234	244.933	1728.428	368.792	3278.489	1008.461	3560.436	1383.906	4205.600	752.539
1635	1.659	0.000005	5	265.764	270.652	1696.176	309.835	3304.710	798.030	3702.992	1741.075	4167.322	783.768
1636	1.660	0.000005	5	248.211	301.364	1667.244	255.558	3309.366	662.076	3939.549	2244.063	4109.395	737.935
1637	1.661	0.000005	5	230.902	336.949	1642.060	210.345	3310.553	567.791	4078.384	635.112	4303.070	3025.414
1638	1.662	0.000002	4	214.117	376.275	1620.185	174.650	3309.118	500.865	4068.127	541.366	--undefined--	--undefined--
1639	1.663	0.000002	4	198.119	417.811	1600.953	147.033	3304.437	453.702	4065.480	463.405	--undefined--	--undefined--
1640	1.664	0.000002	4	182.951	460.518	1583.711	125.722	3295.809	421.630	4065.680	397.593	--undefined--	--undefined--
1641	1.665	0.000002	4	168.322	503.896	1567.864	109.244	3282.493	401.698	4067.095	340.901	--undefined--	--undefined--
1642	1.666	0.000002	4	154.342	546.445	1552.872	96.544	3263.628	391.980	4069.196	291.501	--undefined--	--undefined--
1643	1.667	0.000002	4	144.044	581.999	1538.292	86.973	3238.285	391.022	4071.857	248.458	--undefined--	--undefined--
1644	1.668	0.000002	4	146.193	594.527	1523.813	80.232	3205.692	397.455	4075.036	211.435	--undefined--	--undefined--
1645	1.669	0.000002	4	165.641	563.950	1509.276	76.298	3165.546	409.877	4078.543	180.451	--undefined--	--undefined--
1646	1.670	0.000002	4	189.562	495.320	1494.615	75.342	3118.200	427.059	4081.872	155.601	--undefined--	--undefined--
1647	1.671	0.000001	4	206.358	415.630	1479.760	77.667	3064.419	448.251	4084.181	136.754	--undefined--	--undefined--
1648	1.672	0.000001	4	215.021	343.188	1464.505	83.646	3004.666	472.912	4084.473	123.302	--undefined--	--undefined--
1649	1.673	0.000001	4	217.992	283.911	1448.435	93.563	2938.520	499.135	4081.922	114.088	--undefined--	--undefined--
1650	1.674	0.000001	4	217.542	237.628	1430.967	107.361	2865.294	521.073	4076.246	107.563	--undefined--	--undefined--
1651	1.675	0.000001	4	215.222	201.966	1411.585	124.352	2786.594	528.054	4068.013	102.175	--undefined--	--undefined--
1652	1.676	0.000001	4	212.066	174.203	1390.258	143.169	2709.220	510.468	4058.680	96.943	--undefined--	--undefined--
1653	1.677	0.000001	4	208.817	152.125	1367.789	162.090	2643.116	470.640	4050.157	91.884	--undefined--	--undefined--
1654	1.678	0.000001	4	206.028	134.268	1345.797	179.399	2594.364	422.786	4044.047	87.871	--undefined--	--undefined--
1655	1.679	0.000001	4	204.042	119.684	1326.200	193.205	2562.635	380.826	4041.081	86.014	--undefined--	--undefined--
1656	1.680	0.000001	4	202.955	107.595	1310.446	201.086	2544.256	351.374	4041.080	87.139	--undefined--	--undefined--
1657	1.681	0.000001	4	202.643	97.278	1298.888	200.854	2535.140	335.086	4043.254	91.718	--undefined--	--undefined--
1658	1.682	0.000001	4	202.857	88.214	1290.769	192.379	2531.904	330.197	4046.545	100.113	--undefined--	--undefined--
1659	1.683	0.000001	4	203.337	80.167	1284.873	178.195	2532.099	334.993	4049.814	112.889	--undefined--	--undefined--
1660	1.684	0.000001	4	203.877	73.080	1280.212	161.991	2534.213	348.802	4051.858	131.046	--undefined--	--undefined--
1661	1.685	0.0000003	4	204.339	66.944	1276.237	146.787	2537.631	371.956	4051.330	156.105	--undefined--	--undefined--
1662	1.686	0.0000003	4	204.634	61.717	1272.670	134.213	2542.528	405.247	4046.729	189.850	--undefined--	--undefined--
1663	1.687	0.0000003	4	204.707	57.308	1269.295	124.712	2549.653	448.994	4036.768	233.385	--undefined--	--undefined--
1664	1.688	0.0000003	4	204.534	53.612	1265.851	118.028	2560.052	501.612	4021.487	285.425	--undefined--	--undefined--
