frame	time(s)	intensity	nformants	F1(Hz)	B1(Hz)	F2(Hz)	B2(Hz)	F3(Hz)	B3(Hz)	F4(Hz)	B4(Hz)	F5(Hz)	B5(Hz)
1	0.025	0.002	5	467.253	14.866	2234.724	373.953	2339.532	796.025	3568.795	291.463	4242.132	269.108
2	0.026	0.002	5	465.943	15.174	2230.071	380.486	2334.623	755.415	3570.411	280.943	4246.640	222.253
3	0.027	0.002	5	464.588	15.726	2222.597	383.759	2336.720	722.009	3570.403	273.406	4252.008	186.887
4	0.028	0.002	5	463.128	16.555	2215.545	376.774	2342.498	707.351	3568.587	268.965	4257.956	161.036
5	0.029	0.002	5	461.498	17.688	2212.070	358.141	2348.424	715.626	3565.008	267.407	4264.414	142.775
6	0.030	0.002	5	459.643	19.142	2212.337	330.430	2354.106	745.483	3559.810	268.427	4271.514	130.488
7	0.031	0.002	5	457.524	20.930	2214.450	297.623	2361.685	792.769	3553.064	271.833	4279.514	122.883
8	0.032	0.002	5	455.113	23.061	2216.568	264.207	2373.820	851.357	3544.632	277.669	4288.664	118.882
9	0.033	0.002	5	452.385	25.540	2217.771	233.805	2392.631	914.331	3534.158	286.264	4299.017	117.458
10	0.034	0.002	5	449.301	28.381	2217.828	208.367	2419.434	975.015	3521.195	298.218	4310.232	117.531
11	0.035	0.002	5	445.798	31.627	2216.837	188.305	2454.462	1028.112	3505.446	314.316	4321.475	118.014
12	0.036	0.002	5	441.791	35.377	2215.044	173.040	2496.630	1071.191	3486.950	335.291	4331.573	118.053
13	0.037	0.002	5	437.191	39.778	2212.769	161.645	2543.732	1105.255	3466.093	361.399	4339.408	117.292
14	0.038	0.002	5	431.946	44.978	2210.328	153.336	2593.048	1133.312	3443.485	391.913	4344.307	115.911
15	0.039	0.002	5	426.107	51.004	2207.972	147.654	2641.918	1157.933	3419.881	424.917	4346.157	114.413
16	0.040	0.002	5	419.916	57.630	2205.882	144.348	2688.068	1179.556	3396.161	457.863	4345.217	113.335
17	0.041	0.002	5	413.873	64.265	2204.224	143.160	2729.892	1196.321	3373.150	488.960	4341.853	113.034
18	0.042	0.002	5	408.689	70.003	2203.176	143.647	2766.960	1205.105	3351.133	518.656	4336.402	113.547
19	0.043	0.002	5	405.074	73.909	2202.867	145.089	2800.483	1203.105	3329.364	550.051	4329.223	114.535
20	0.044	0.002	5	403.427	75.467	2203.234	146.600	2833.254	1188.958	3306.073	588.039	4320.868	115.368
21	0.045	0.002	5	403.667	74.859	2203.923	147.445	2869.144	1162.368	3278.857	638.445	4312.180	115.474
22	0.046	0.002	5	405.336	72.839	2204.356	147.420	2913.085	1121.164	3244.545	709.216	4304.102	114.828
23	0.047	0.002	5	407.862	70.339	2203.943	146.958	2973.359	1049.132	3196.608	820.769	4297.259	114.189
24	0.048	0.002	5	410.761	68.113	2202.235	146.863	3014.080	835.276	3172.178	1084.589	4291.698	114.818
25	0.049	0.002	5	413.706	66.596	2198.961	147.897	2980.357	724.087	3226.320	1250.973	4287.010	118.018
26	0.050	0.002	5	416.502	65.935	2194.019	150.406	2956.512	679.976	3273.495	1344.504	4282.677	124.851
27	0.051	0.002	5	419.033	66.083	2187.524	154.106	2938.130	669.023	3315.683	1385.383	4278.371	136.016
28	0.052	0.002	5	421.221	66.880	2179.871	158.118	2921.848	681.294	3353.283	1371.988	4274.165	151.582
29	0.053	0.002	5	422.989	68.092	2171.715	161.366	2903.634	709.286	3387.591	1305.372	4270.671	170.365
30	0.054	0.002	5	424.263	69.424	2163.749	163.236	2878.329	742.049	3421.688	1194.675	4269.052	189.147
31	0.055	0.002	5	424.982	70.552	2156.380	163.926	2843.086	762.518	3457.836	1059.717	4270.503	202.795
32	0.056	0.002	5	425.130	71.206	2149.572	164.111	2801.889	755.934	3494.481	924.843	4275.129	206.669
33	0.057	0.002	5	424.764	71.267	2142.986	164.327	2762.648	721.218	3528.987	806.884	4281.432	200.183
34	0.058	0.002	5	424.012	70.802	2136.277	164.714	2731.132	668.564	3560.421	711.959	4287.450	187.158
35	0.059	0.002	5	423.045	70.023	2129.299	165.232	2709.222	610.831	3588.439	639.669	4292.035	172.441
36	0.060	0.002	5	422.048	69.208	2122.122	165.994	2696.262	558.210	3612.224	587.769	4294.938	159.224
37	0.061	0.002	5	421.188	68.624	2114.925	167.388	2690.678	516.766	3630.791	554.337	4296.309	148.837
38	0.062	0.002	5	420.588	68.452	2107.862	169.940	2690.785	488.849	3643.730	537.710	4296.376	141.560
39	0.063	0.002	5	420.319	68.734	2101.004	174.108	2694.873	473.950	3651.726	535.484	4295.357	137.296
40	0.064	0.002	5	420.388	69.353	2094.324	180.164	2700.963	469.352	3656.756	543.359	4293.451	135.907
41	0.065	0.002	5	420.746	70.065	2087.718	188.221	2706.503	470.619	3661.891	554.271	4290.844	137.326
42	0.066	0.002	5	421.297	70.568	2081.030	198.333	2708.413	472.359	3670.431	558.708	4287.761	141.443
43	0.067	0.002	5	421.917	70.605	2074.087	210.559	2703.890	469.572	3684.318	547.524	4284.575	147.811
44	0.068	0.002	5	422.480	70.055	2066.735	224.917	2691.822	459.078	3702.793	516.694	4281.848	155.283
45	0.069	0.002	5	422.878	68.950	2058.815	241.304	2673.466	440.181	3722.855	469.842	4280.124	161.970
46	0.070	0.002	5	423.024	67.427	2050.130	259.531	2651.637	414.368	3741.301	415.569	4279.555	165.849
47	0.071	0.002	5	422.848	65.680	2040.498	279.474	2629.244	384.446	3756.273	362.363	4279.739	165.749
48	0.072	0.002	5	422.308	63.931	2029.904	301.208	2608.321	353.636	3767.299	315.461	4280.024	161.865
49	0.073	0.002	5	421.396	62.410	2018.690	324.954	2589.777	324.958	3774.560	276.684	4279.982	155.412
50	0.074	0.002	5	420.154	61.335	2007.721	350.728	2573.606	300.957	3778.367	245.703	4279.724	147.941
51	0.075	0.002	5	418.665	60.864	1998.457	377.721	2559.236	283.697	3779.072	221.305	4279.923	140.869
52	0.076	0.002	5	417.047	61.064	1992.698	403.735	2545.909	274.739	3777.192	202.143	4281.608	135.296
53	0.077	0.002	5	415.410	61.888	1991.744	425.313	2533.033	274.897	3773.462	187.058	4285.748	131.839
54	0.078	0.002	5	413.837	63.212	1995.293	439.025	2520.501	283.825	3768.694	175.165	4292.722	130.506
55	0.079	0.002	5	412.361	64.895	2001.176	443.287	2508.832	299.850	3763.604	165.950	4301.936	130.807
56	0.080	0.002	5	410.956	66.832	2006.481	439.124	2499.057	320.451	3758.763	159.366	4311.855	132.181
57	0.081	0.002	5	409.553	68.968	2009.104	429.243	2492.439	343.251	3754.610	155.735	4320.474	134.414
58	0.082	0.002	5	408.058	71.280	2008.446	416.488	2490.155	366.766	3751.365	155.431	4325.945	137.683
59	0.083	0.002	5	406.388	73.742	2005.092	403.025	2492.978	390.253	3748.884	158.492	4327.067	142.202
60	0.084	0.002	5	404.506	76.295	2000.098	390.425	2500.946	412.879	3746.608	164.311	4323.538	147.785
61	0.085	0.002	5	402.441	78.829	1994.447	379.926	2513.129	433.003	3743.779	171.565	4316.033	153.602
62	0.086	0.002	5	400.283	81.186	1988.759	372.312	2527.730	448.063	3739.924	178.498	4306.132	158.330
63	0.087	0.002	5	398.161	83.165	1983.185	367.486	2542.625	455.126	3735.288	183.559	4296.020	160.618
64	0.088	0.002	5	396.206	84.541	1977.491	364.157	2556.091	451.945	3730.805	186.050	4287.893	159.582
65	0.089	0.002	5	394.524	85.106	1971.296	359.975	2567.255	438.110	3727.639	186.344	4283.256	155.044
66	0.090	0.002	5	393.177	84.717	1964.417	352.269	2576.027	415.581	3726.718	185.613	4282.484	147.545
67	0.091	0.002	5	392.177	83.361	1957.086	339.261	2582.752	388.195	3728.594	185.353	4284.889	138.255
68	0.092	0.002	5	391.495	81.208	1949.880	321.090	2587.931	360.437	3733.567	186.985	4289.199	128.702
69	0.093	0.002	5	391.065	78.613	1943.396	299.863	2592.163	336.312	3741.810	191.629	4294.065	120.370
70	0.094	0.002	5	390.793	76.047	1937.970	278.664	2596.222	318.842	3753.354	199.993	4298.330	114.371
71	0.095	0.002	5	390.566	73.994	1933.615	260.298	2601.145	310.172	3767.868	212.317	4301.071	111.320
72	0.096	0.002	5	390.264	72.861	1930.153	246.521	2608.388	311.950	3784.305	228.354	4301.543	111.323
73	0.097	0.002	5	389.765	72.917	1927.345	237.845	2620.033	325.502	3800.618	247.508	4299.170	113.951
74	0.098	0.002	5	388.925	74.213	1924.814	233.606	2638.920	351.096	3814.012	269.076	4293.663	118.179
75	0.099	0.002	5	387.552	76.470	1921.727	232.240	2668.068	385.454	3822.013	292.116	4285.291	122.467
76	0.100	0.002	5	385.382	79.014	1916.610	232.182	2708.538	418.293	3823.945	314.299	4275.213	125.187
77	0.101	0.002	5	382.149	80.996	1908.058	233.202	2756.228	433.396	3821.644	330.632	4265.441	125.256
78	0.102	0.002	5	377.762	81.834	1896.090	236.796	2801.660	419.619	3818.289	334.924	4258.075	122.421
79	0.103	0.002	5	372.538	81.378	1882.558	245.406	2835.797	381.788	3815.990	324.830	4254.254	117.025
80	0.104	0.002	5	367.315	79.607	1870.139	261.827	2855.661	335.580	3814.967	304.884	4253.810	109.896
81	0.105	0.002	5	363.278	76.424	1861.077	289.142	2863.409	294.466	3814.868	282.933	4255.866	102.364
82	0.106	0.001	5	361.457	71.919	1856.608	330.733	2862.510	264.536	3815.566	264.874	4259.514	95.798
83	0.107	0.001	5	362.218	66.636	1856.984	389.777	2855.595	246.483	3816.884	252.943	4264.023	91.045
84	0.108	0.001	5	365.162	61.382	1861.709	467.596	2844.142	238.371	3818.346	246.580	4268.830	88.322
85	0.109	0.001	5	369.464	56.805	1869.675	560.688	2829.040	237.013	3819.335	243.685	4273.562	87.413
86	0.110	0.001	5	374.278	53.177	1879.244	658.176	2811.473	238.635	3819.451	241.753	4278.085	87.918
87	0.111	0.001	5	378.966	50.459	1888.632	743.795	2793.491	239.931	3818.665	239.012	4282.446	89.429
88	0.112	0.001	5	383.163	48.467	1896.694	803.891	2777.580	239.284	3817.104	235.175	4286.737	91.601
89	0.113	0.001	5	386.744	46.993	1903.308	834.638	2765.609	236.893	3814.767	231.184	4290.972	94.117
90	0.114	0.001	5	389.742	45.845	1908.896	841.267	2758.270	233.772	3811.557	228.251	4295.071	96.619
91	0.115	0.001	5	392.267	44.862	1913.717	832.225	2755.290	230.776	3807.493	227.124	4298.877	98.711
92	0.116	0.001	5	394.447	43.900	1917.608	814.791	2755.887	228.210	3802.842	227.930	4302.175	100.063
93	0.117	0.001	5	396.401	42.842	1920.204	793.907	2759.120	225.913	3798.067	230.386	4304.709	100.545
94	0.118	0.001	5	398.217	41.604	1921.300	772.680	2764.039	223.568	3793.658	234.085	4306.220	100.278
95	0.119	0.001	5	399.949	40.146	1921.116	753.177	2769.721	221.027	3789.887	238.698	4306.518	99.555
96	0.120	0.001	5	401.618	38.478	1920.399	737.023	2775.260	218.514	3786.623	244.093	4305.535	98.708
97	0.121	0.001	5	403.210	36.655	1920.373	725.755	2779.767	216.651	3783.292	250.387	4303.338	98.006
98	0.122	0.001	5	404.694	34.763	1922.580	720.927	2782.428	216.319	3779.007	257.960	4300.106	97.634
99	0.123	0.001	5	406.032	32.899	1928.586	723.953	2782.627	218.397	3772.821	267.380	4296.094	97.726
100	0.124	0.001	5	407.183	31.152	1939.625	735.714	2780.116	223.475	3764.011	279.249	4291.587	98.405
101	0.125	0.001	5	408.119	29.590	1956.265	756.066	2775.139	231.624	3752.308	294.009	4286.846	99.801
102	0.126	0.001	5	408.821	28.257	1978.210	783.428	2768.445	242.265	3738.024	311.778	4282.047	102.051
103	0.127	0.001	5	409.287	27.180	2004.197	814.669	2761.114	254.120	3722.072	332.203	4277.244	105.250
104	0.128	0.001	5	409.526	26.371	2031.938	845.511	2754.244	265.223	3705.875	354.254	4272.399	109.386
105	0.129	0.001	5	409.553	25.833	2058.185	871.561	2748.601	273.043	3691.155	375.976	4267.521	114.281
106	0.130	0.001	5	409.393	25.563	2079.185	889.624	2744.381	274.909	3679.593	394.395	4262.854	119.615
107	0.131	0.001	5	409.075	25.547	2091.650	898.433	2741.205	268.878	3672.407	405.932	4258.998	125.017
108	0.132	0.001	5	408.633	25.751	2093.868	898.250	2738.398	254.724	3669.957	407.455	4256.830	130.173
109	0.133	0.001	5	408.103	26.121	2086.266	889.974	2735.408	234.253	3671.572	397.583	4257.234	134.789
110	0.134	0.001	5	407.517	26.587	2071.083	874.809	2732.077	210.563	3675.702	377.421	4260.731	138.431
111	0.135	0.001	5	406.908	27.078	2051.485	854.530	2728.652	186.838	3680.408	350.280	4267.157	140.426
112	0.136	0.001	5	406.307	27.531	2030.619	831.623	2725.626	165.465	3684.001	320.561	4275.522	140.067
113	0.137	0.001	5	405.760	27.912	2010.917	808.852	2723.546	147.755	3685.533	292.372	4284.223	137.047
114	0.138	0.001	5	405.321	28.215	1993.696	788.430	2722.844	134.060	3684.904	268.480	4291.601	131.705
115	0.139	0.001	5	405.048	28.460	1979.040	771.196	2723.716	124.049	3682.596	250.004	4296.553	124.848
116	0.140	0.001	5	404.994	28.680	1966.031	756.307	2726.059	117.000	3679.299	236.738	4298.830	117.370
117	0.141	0.001	5	405.185	28.910	1953.314	741.678	2729.483	112.082	3675.588	227.774	4298.904	109.998
118	0.142	0.001	5	405.601	29.184	1939.802	725.039	2733.369	108.576	3671.752	222.064	4297.575	103.237
119	0.143	0.001	5	406.160	29.533	1925.180	705.130	2736.971	106.008	3667.711	218.732	4295.575	97.382
120	0.144	0.001	5	406.710	29.986	1909.916	682.419	2739.515	104.155	3663.054	217.106	4293.348	92.505
121	0.145	0.001	5	407.050	30.575	1894.840	658.966	2740.303	102.940	3657.171	216.550	4291.030	88.424
122	0.146	0.001	5	406.968	31.331	1880.606	637.472	2738.779	102.272	3649.512	216.250	4288.565	84.682
123	0.147	0.001	5	406.299	32.268	1867.362	620.048	2734.588	101.868	3639.912	215.155	4285.871	80.606
124	0.148	0.001	5	404.981	33.364	1854.740	607.294	2727.670	101.169	3628.874	212.200	4282.998	75.528
125	0.149	0.001	5	403.078	34.548	1842.116	598.090	2718.418	99.459	3617.636	206.834	4280.185	69.160
126	0.150	0.001	5	400.776	35.714	1829.048	590.262	2707.762	96.239	3607.878	199.539	4277.759	61.874
127	0.151	0.001	5	398.332	36.759	1815.706	581.886	2697.000	91.654	3601.193	191.838	4275.952	54.573
128	0.152	0.001	5	395.999	37.610	1802.997	572.544	2687.359	86.536	3598.633	185.660	4274.803	48.220
129	0.153	0.001	5	393.965	38.244	1792.282	563.612	2679.591	81.985	3600.568	182.533	4274.220	43.435
130	0.154	0.001	5	392.312	38.669	1784.912	557.426	2673.854	78.897	3606.718	183.087	4274.105	40.438
131	0.155	0.001	5	391.021	38.910	1781.908	556.042	2669.841	77.746	3616.160	186.974	4274.409	39.179
132	0.156	0.001	5	389.997	39.001	1783.848	560.354	2666.956	78.591	3627.343	193.082	4275.112	39.492
133	0.157	0.001	5	389.110	38.984	1790.783	569.770	2664.470	81.108	3638.372	199.946	4276.180	41.172
134	0.158	0.001	5	388.232	38.908	1802.050	582.272	2661.657	84.561	3647.655	206.227	4277.512	44.016
135	0.159	0.001	5	387.260	38.822	1816.087	594.949	2657.975	87.866	3654.556	211.046	4278.935	47.845
136	0.160	0.001	5	386.134	38.755	1830.648	605.138	2653.238	89.931	3659.567	214.126	4280.196	52.524
137	0.161	0.001	5	384.832	38.712	1843.524	611.669	2647.617	90.167	3663.903	215.792	4280.952	57.942
138	0.162	0.001	5	383.368	38.667	1853.286	615.236	2641.441	88.714	3668.882	216.767	4280.779	63.951
139	0.163	0.0009	5	381.777	38.577	1859.470	617.561	2634.992	86.190	3675.382	217.756	4279.247	70.240
140	0.164	0.0009	5	380.111	38.399	1862.174	619.957	2628.441	83.283	3683.451	218.954	4276.098	76.212
141	0.165	0.0009	5	378.431	38.120	1861.542	622.174	2621.910	80.508	3692.083	219.695	4271.441	80.958
142	0.166	0.0009	5	376.800	37.778	1857.533	621.982	2615.548	78.205	3699.296	218.451	4265.830	83.439
143	0.167	0.0009	5	375.274	37.458	1850.077	615.612	2609.545	76.639	3702.729	213.306	4260.118	82.883
144	0.168	0.0008	5	373.881	37.251	1839.470	599.153	2604.044	76.051	3700.739	202.899	4255.145	79.244
145	0.169	0.0006	5	372.631	37.224	1826.751	570.871	2598.984	76.659	3693.411	187.462	4251.450	73.410
146	0.170	0.0006	5	371.509	37.428	1813.691	533.303	2593.979	78.709	3682.561	169.154	4249.112	66.870
147	0.171	0.0006	5	370.490	37.962	1802.219	492.853	2588.307	82.578	3670.635	151.099	4247.769	61.043
148	0.172	0.0006	5	369.528	39.001	1793.526	456.577	2581.031	88.750	3659.512	135.795	4246.762	56.801
149	0.173	0.0006	5	368.550	40.742	1787.447	428.865	2571.173	97.545	3650.036	124.207	4245.358	54.415
150	0.174	0.0006	5	367.464	43.314	1782.384	410.195	2557.955	108.676	3642.241	115.879	4242.958	53.721
151	0.175	0.0006	5	366.177	46.702	1775.681	397.586	2541.124	120.856	3635.789	109.553	4239.222	54.300
152	0.176	0.0006	5	364.617	50.709	1764.380	385.502	2521.306	131.848	3630.311	103.814	4234.075	55.622
153	0.177	0.0006	5	362.740	54.918	1746.338	367.077	2500.097	139.303	3625.546	97.623	4227.641	57.169
154	0.178	0.0006	5	360.544	58.678	1721.465	336.478	2479.602	142.101	3621.324	90.631	4220.167	58.564
155	0.179	0.0006	5	358.089	61.238	1692.196	292.333	2461.564	141.150	3617.517	83.193	4211.970	59.678
156	0.180	0.0006	5	355.515	62.066	1662.437	239.418	2446.833	138.945	3614.063	76.092	4203.453	60.674
157	0.181	0.0006	5	353.009	61.185	1635.655	186.124	2435.499	138.511	3611.042	70.184	4195.170	61.971
158	0.182	0.0006	5	350.742	59.208	1613.649	139.738	2427.310	142.719	3608.699	66.152	4187.875	64.186
159	0.183	0.0006	5	348.814	57.024	1596.557	103.670	2421.926	154.304	3607.386	64.479	4182.455	68.118
160	0.184	0.0006	5	347.253	55.432	1583.562	77.787	2419.013	176.343	3607.461	65.546	4179.758	74.799
161	0.185	0.0006	5	346.045	54.958	1573.584	60.168	2418.273	212.726	3609.206	69.749	4180.393	85.558
162	0.186	0.0006	5	345.160	55.867	1565.666	48.567	2419.489	268.181	3612.800	77.583	4184.590	102.114
163	0.187	0.0006	5	344.564	58.242	1559.088	41.110	2422.600	347.343	3618.370	89.676	4192.115	126.631
164	0.188	0.0004	5	344.208	62.048	1553.353	36.442	2427.779	452.403	3626.125	106.754	4202.181	161.673
165	0.189	0.0004	5	344.006	67.636	1547.657	33.474	2436.325	591.985	3637.708	131.845	4214.471	215.069
166	0.190	0.0004	5	343.870	73.713	1542.703	32.135	2447.486	729.263	3652.462	160.998	4225.053	280.448
167	0.191	0.0004	5	343.619	80.181	1537.866	31.880	2462.115	854.641	3673.260	195.003	4233.219	363.226
168	0.192	0.0004	5	343.056	86.466	1533.109	32.689	2479.229	945.838	3702.667	230.106	4237.963	464.330
169	0.193	0.0004	5	341.962	92.072	1528.475	34.665	2495.943	986.528	3742.290	257.842	4240.122	584.174
170	0.194	0.0004	5	340.117	96.722	1524.063	38.010	2508.270	973.516	3789.543	266.119	4244.185	720.734
171	0.195	0.0004	5	337.321	100.433	1520.019	43.054	2513.617	918.400	3836.052	249.907	4257.872	861.914
172	0.196	0.0004	5	333.406	103.503	1516.556	50.378	2512.417	840.902	3874.688	219.587	4284.530	984.054
173	0.197	0.0004	5	328.251	106.412	1513.993	61.038	2506.703	759.497	3905.063	187.758	4319.354	1069.809
174	0.198	0.0003	5	321.819	109.670	1512.836	77.012	2497.557	686.833	3929.392	159.966	4355.219	1116.687
175	0.199	0.0003	5	314.246	113.654	1513.928	101.972	2483.952	630.030	3949.487	137.518	4386.107	1131.968
176	0.200	0.0003	5	305.977	118.455	1518.729	142.562	2462.976	592.432	3966.513	120.297	4407.589	1128.350
177	0.201	0.0003	5	298.533	123.259	1528.317	202.335	2434.117	575.410	3979.948	108.729	4416.677	1121.065
178	0.202	0.0003	5	291.306	128.372	1547.632	307.973	2387.547	572.289	3992.875	99.877	4414.100	1120.040
179	0.203	0.0003	5	285.686	132.463	1578.444	472.377	2322.228	571.537	4003.992	94.387	4398.188	1130.123
180	0.204	0.0003	5	281.591	134.649	1614.098	704.864	2244.195	536.538	4013.142	91.610	4370.028	1141.432
181	0.205	0.0003	5	278.326	134.052	1624.109	960.667	2188.116	444.571	4020.088	91.213	4333.098	1134.698
182	0.206	0.0003	5	275.167	130.311	1600.544	1112.515	2174.001	358.845	4024.903	93.333	4291.897	1100.125
183	0.207	0.0003	5	271.847	124.204	1573.718	1131.493	2181.392	306.572	4028.138	98.413	4248.471	1045.351
184	0.208	0.0003	5	268.505	117.292	1555.290	1077.263	2197.619	274.969	4030.623	106.795	4203.293	982.715
185	0.209	0.0003	5	265.385	111.051	1544.284	1005.798	2217.290	253.941	4033.160	118.239	4158.666	920.185
186	0.210	0.0003	5	262.663	106.404	1538.722	947.651	2237.251	239.348	4036.076	131.502	4119.555	862.957
187	0.211	0.0003	5	260.410	103.671	1538.176	915.091	2255.530	230.224	4038.770	144.449	4091.648	816.000
188	0.212	0.0003	5	258.607	102.643	1543.226	910.725	2270.984	226.494	4039.908	154.858	4078.452	783.241
189	0.213	0.0002	5	257.168	102.679	1554.663	932.252	2282.991	227.881	4038.607	160.974	4079.403	766.396
190	0.214	0.0002	5	255.974	102.919	1573.001	974.777	2291.252	233.709	4035.429	161.770	4090.431	765.322
191	0.215	0.0002	5	254.896	102.553	1598.130	1032.060	2295.747	243.034	4031.982	157.668	4106.410	778.246
192	0.216	0.0002	5	253.821	101.074	1629.024	1097.429	2296.747	254.757	4029.710	150.470	4123.456	802.242
193	0.217	0.0001	5	252.667	98.386	1663.661	1164.838	2294.838	267.684	4029.296	142.109	4139.589	834.605
194	0.218	0.00010	5	251.269	94.369	1702.607	1235.714	2290.495	281.744	4031.098	133.066	4155.450	878.033
195	0.219	0.00010	5	249.864	90.123	1736.707	1296.216	2285.692	293.419	4034.627	125.320	4168.587	926.267
196	0.220	0.00010	5	248.373	85.720	1767.754	1352.627	2281.441	303.085	4039.555	118.091	4181.059	985.708
197	0.221	0.00010	5	246.844	81.419	1795.580	1406.533	2278.942	310.262	4045.251	111.331	4193.827	1060.752
198	0.222	0.0001	5	245.336	77.394	1820.895	1460.566	2278.990	314.712	4050.842	105.270	4207.769	1155.253
199	0.223	0.0001	5	243.912	73.800	1844.309	1518.317	2281.745	316.242	4055.320	100.542	4223.022	1270.001
200	0.224	0.0001	5	242.628	70.811	1865.260	1583.515	2286.745	314.637	4057.718	98.006	4238.307	1400.532
201	0.225	0.0001	5	241.518	68.610	1881.446	1657.642	2293.211	309.936	4057.288	98.406	4250.816	1536.791
202	0.226	0.0001	5	240.586	67.325	1889.298	1736.468	2300.431	302.857	4053.653	102.124	4257.099	1665.421
203	0.227	0.0001	5	239.798	66.934	1885.489	1807.772	2307.977	294.826	4046.978	109.180	4254.397	1772.693
204	0.228	0.0001	5	239.089	67.200	1868.479	1853.051	2315.720	287.314	4038.169	119.615	4240.775	1843.277
205	0.229	0.0001	5	238.373	67.648	1838.626	1853.599	2323.793	280.910	4029.045	134.363	4213.949	1853.315
206	0.230	0.0001	5	237.559	67.649	1797.770	1798.484	2332.479	274.853	4022.325	156.397	4172.835	1771.395
207	0.231	0.0001	5	236.579	66.643	1751.585	1693.030	2341.901	267.726	4021.362	191.503	4122.883	1587.011
208	0.232	0.0001	5	235.429	64.451	1710.524	1561.629	2351.788	259.177	4030.007	248.170	4073.600	1333.483
209	0.233	0.0001	5	234.162	61.356	1683.063	1433.348	2361.697	250.522	4025.451	1054.695	4055.116	337.530
210	0.234	0.0001	5	232.962	58.143	1671.120	1332.816	2370.469	243.811	3958.242	816.034	4115.990	434.656
211	0.235	0.0001	5	231.617	54.512	1669.269	1241.399	2379.669	238.184	3883.896	695.332	4195.296	435.683
212	0.236	0.0001	5	230.258	51.028	1675.265	1166.488	2388.197	234.360	3850.826	628.523	4240.731	414.086
213	0.237	0.0001	5	228.894	47.886	1686.020	1105.165	2395.888	232.388	3838.651	577.175	4267.790	403.188
214	0.238	0.0001	5	227.545	45.236	1699.649	1056.413	2402.729	232.518	3837.858	538.465	4282.217	404.065
215	0.239	0.0001	5	226.239	43.170	1715.140	1020.461	2408.856	235.048	3844.777	513.284	4285.222	415.518
216	0.240	0.0001	5	225.014	41.727	1732.069	998.018	2414.465	240.250	3858.783	503.036	4275.817	434.983
217	0.241	0.0001	5	223.902	40.889	1750.266	989.238	2419.706	248.274	3880.749	510.268	4251.867	455.431
218	0.242	0.0001	5	222.917	40.562	1769.302	992.323	2424.649	258.873	3911.363	541.803	4211.999	460.168
219	0.243	0.0001	5	222.058	40.574	1788.196	1002.879	2429.352	271.237	3944.631	616.810	4163.311	416.690
220	0.244	0.0001	5	221.314	40.730	1805.986	1015.328	2433.962	284.441	3952.294	725.056	4137.576	326.189
221	0.245	0.0001	5	220.674	40.888	1822.538	1025.376	2438.703	298.153	3939.559	801.659	4133.660	254.297
222	0.246	0.0001	5	220.127	40.975	1838.219	1031.051	2443.781	312.590	3925.801	848.555	4134.173	205.440
223	0.247	0.0001	5	219.631	40.965	1854.070	1032.041	2449.881	329.208	3914.398	880.834	4134.240	168.764
224	0.248	0.0001	5	219.268	40.871	1866.098	1029.122	2456.112	344.488	3906.096	898.755	4132.823	144.864
225	0.249	0.0001	5	218.998	40.722	1873.867	1023.968	2463.012	358.357	3897.608	905.772	4130.099	127.054
226	0.250	0.0001	5	218.840	40.554	1875.915	1018.238	2469.823	368.299	3888.231	901.308	4126.869	114.480
227	0.251	0.0001	5	218.762	40.310	1872.043	1010.586	2477.739	374.978	3875.384	883.099	4123.012	103.404
228	0.252	0.0001	5	218.775	39.935	1862.409	999.757	2485.813	376.590	3860.270	850.944	4119.407	94.345
229	0.253	0.0001	5	218.851	39.331	1849.118	983.232	2493.667	373.569	3844.207	807.125	4116.589	86.700
230	0.254	0.0001	5	218.959	38.411	1835.346	959.475	2500.888	367.337	3828.911	756.273	4114.973	80.110
231	0.255	0.0001	5	219.069	37.146	1824.446	929.117	2507.120	359.882	3815.899	704.210	4114.807	74.422
232	0.256	0.0001	5	219.159	35.570	1818.935	894.586	2512.178	353.199	3806.050	656.174	4116.157	69.617
233	0.257	0.0001	5	219.216	33.758	1819.895	858.673	2516.116	348.792	3799.447	615.487	4118.904	65.683
234	0.258	0.0001	5	219.233	31.796	1826.946	823.320	2519.246	347.431	3795.543	583.265	4122.739	62.531
235	0.259	0.0001	5	219.205	29.774	1838.600	789.429	2522.096	349.163	3793.547	558.935	4127.178	60.035
236	0.260	0.0001	5	219.135	27.794	1852.684	757.521	2525.303	353.502	3792.815	541.006	4131.621	58.134
237	0.261	0.0001	5	219.032	25.989	1866.740	728.618	2529.418	359.635	3793.029	527.754	4135.464	56.902
238	0.262	0.0001	5	218.917	24.509	1878.401	704.742	2534.660	366.653	3794.094	517.806	4138.206	56.527
239	0.263	0.0001	5	218.819	23.505	1885.805	688.627	2540.765	373.843	3795.888	510.569	4139.524	57.213
240	0.264	0.0001	5	218.763	23.090	1887.936	682.704	2547.061	380.936	3798.080	506.317	4139.297	59.090
241	0.265	0.0001	5	218.767	23.313	1884.778	687.957	2552.761	388.159	3800.141	505.809	4137.579	62.158
242	0.266	0.0001	5	218.838	24.157	1877.238	703.470	2557.228	396.077	3801.497	509.718	4134.549	66.290
243	0.267	0.0001	5	218.977	25.545	1866.837	726.992	2560.060	405.364	3801.645	518.285	4130.434	71.273
244	0.268	0.0001	5	219.183	27.372	1855.244	756.074	2561.016	416.627	3800.209	531.322	4125.422	76.853
245	0.269	0.0001	5	219.452	29.531	1843.802	789.001	2559.934	430.269	3796.958	548.400	4119.624	82.760
246	0.270	0.0001	5	219.785	31.933	1833.238	825.090	2556.700	446.379	3791.847	568.954	4113.087	88.723
247	0.271	0.0001	5	220.180	34.512	1823.579	864.357	2551.248	464.599	3785.093	592.148	4105.880	94.494
248	0.272	0.0001	5	220.639	37.208	1814.116	906.872	2543.626	483.906	3777.273	616.474	4098.220	99.896
249	0.273	0.0001	5	221.161	39.959	1803.291	951.948	2534.143	502.305	3769.426	639.167	4090.582	104.874
250	0.274	0.0001	5	221.742	42.686	1788.550	997.235	2523.604	516.688	3763.028	655.802	4083.748	109.466
251	0.275	0.0001	5	222.372	45.287	1766.606	1037.935	2513.452	523.340	3759.645	660.662	4078.748	113.631
252	0.276	0.0001	5	223.033	47.645	1734.692	1067.054	2505.506	519.453	3760.188	648.744	4076.572	116.962
253	0.277	0.0001	5	223.763	49.821	1688.278	1077.763	2501.084	503.002	3764.797	615.610	4077.849	118.528
254	0.278	0.0002	5	224.418	51.381	1638.437	1065.372	2501.515	479.416	3771.361	571.931	4081.505	116.940
255	0.279	0.0002	5	225.038	52.504	1586.448	1034.358	2505.945	451.182	3779.137	523.040	4085.795	112.326
256	0.280	0.0002	5	225.611	53.198	1536.336	990.611	2513.604	421.103	3787.680	474.407	4089.230	105.799
257	0.281	0.0002	5	226.128	53.505	1490.572	940.783	2523.461	391.255	3796.663	428.601	4091.332	98.860
258	0.282	0.0002	5	226.585	53.491	1450.238	890.596	2534.391	363.289	3805.716	386.426	4092.559	92.559
259	0.283	0.0002	5	226.981	53.242	1415.512	843.983	2545.359	338.513	3814.566	347.964	4093.834	87.332
260	0.284	0.0002	5	227.318	52.835	1386.104	803.007	2555.569	317.779	3823.066	313.096	4096.103	83.153
261	0.285	0.0002	5	227.607	52.329	1361.554	768.305	2564.552	301.412	3831.059	281.872	4100.026	79.687
262	0.286	0.0002	5	227.865	51.763	1341.389	739.686	2572.204	289.240	3838.290	254.744	4105.779	76.441
263	0.287	0.0002	5	228.115	51.154	1325.213	716.608	2578.798	280.681	3844.499	232.484	4113.014	73.008
264	0.288	0.0002	5	228.378	50.506	1312.804	698.585	2584.948	274.929	3849.588	215.885	4121.036	69.331
265	0.289	0.0002	5	228.672	49.830	1304.337	685.706	2591.401	271.316	3853.726	205.621	4129.096	65.809
266	0.290	0.0002	5	229.022	49.198	1300.909	679.515	2598.612	269.997	3857.404	202.610	4136.642	63.259
267	0.291	0.0002	5	229.466	48.796	1305.500	684.046	2606.109	272.934	3861.556	208.949	4143.367	62.946
268	0.292	0.0002	5	230.071	48.932	1324.180	705.730	2612.023	284.826	3867.879	229.396	4149.041	66.821
269	0.293	0.0002	5	230.909	49.889	1366.173	748.829	2613.544	312.850	3879.513	272.999	4152.972	77.825
270	0.294	0.0002	5	232.025	51.742	1439.657	803.891	2609.302	363.516	3902.626	354.170	4152.700	99.098
271	0.295	0.0003	5	233.451	54.550	1541.688	839.896	2602.870	436.430	3949.107	496.143	4142.076	126.803
272	0.296	0.0003	5	235.314	58.751	1650.474	824.110	2602.812	518.103	4028.131	740.332	4120.907	132.704
273	0.297	0.0003	5	237.865	64.943	1736.754	761.645	2614.445	582.900	4107.769	117.418	4132.912	1083.272
274	0.298	0.0003	5	241.404	73.331	1789.880	693.390	2631.220	614.841	4101.448	106.462	4275.014	1479.996
275	0.299	0.0003	5	246.206	83.514	1820.287	648.886	2644.444	626.757	4096.533	102.276	4471.660	1915.378
276	0.300	0.0003	5	252.498	94.653	1841.351	633.700	2653.819	640.730	4090.916	102.784	4780.067	2415.851
277	0.301	0.0003	4	260.466	105.865	1862.740	644.406	2663.834	671.726	4083.962	106.003	--undefined--	--undefined--
278	0.302	0.0003	4	270.268	116.658	1892.839	674.697	2681.028	729.747	4075.834	110.270	--undefined--	--undefined--
279	0.303	0.0003	4	282.063	127.207	1940.692	708.273	2717.308	821.175	4067.262	114.251	--undefined--	--undefined--
280	0.304	0.0003	4	296.115	138.334	2006.577	705.990	2793.917	926.942	4059.329	117.082	--undefined--	--undefined--
281	0.305	0.0003	4	313.027	151.093	2064.961	648.235	2913.949	972.006	4053.193	118.481	--undefined--	--undefined--
282	0.306	0.0003	4	334.155	165.492	2100.373	579.757	3038.468	923.869	4049.799	118.631	--undefined--	--undefined--
283	0.307	0.0003	4	361.455	176.726	2121.640	533.110	3142.514	825.385	4049.642	117.838	--undefined--	--undefined--
284	0.308	0.0003	4	392.971	171.997	2137.604	517.639	3222.201	716.619	4052.580	116.314	--undefined--	--undefined--
285	0.309	0.0003	4	418.966	148.722	2153.347	539.091	3278.594	621.993	4057.797	114.434	--undefined--	--undefined--
286	0.310	0.0003	4	435.060	122.532	2172.089	605.241	3313.807	555.135	4064.122	113.137	--undefined--	--undefined--
287	0.311	0.0003	4	444.336	103.098	2195.945	724.064	3330.376	520.008	4070.558	113.578	--undefined--	--undefined--
288	0.312	0.0003	4	450.128	91.270	2225.301	896.497	3330.576	511.181	4076.546	116.134	--undefined--	--undefined--
289	0.313	0.0003	4	454.353	84.878	2256.486	1108.029	3316.691	514.171	4081.881	119.966	--undefined--	--undefined--
290	0.314	0.0003	4	457.672	81.732	2277.345	1308.670	3295.509	509.817	4086.171	123.460	--undefined--	--undefined--
291	0.315	0.0003	4	461.227	79.550	2277.261	1502.002	3270.510	481.911	4090.435	126.788	--undefined--	--undefined--
292	0.316	0.0003	4	464.906	77.798	2246.035	1631.563	3252.476	429.859	4094.507	130.278	--undefined--	--undefined--
293	0.317	0.0003	4	468.740	76.266	2195.585	1688.029	3244.850	367.576	4098.695	135.543	--undefined--	--undefined--
294	0.318	0.0003	4	472.619	75.218	2144.755	1696.773	3245.420	308.982	4103.274	144.253	--undefined--	--undefined--
295	0.319	0.0003	4	476.370	75.072	2104.098	1692.132	3250.411	261.247	4108.505	157.604	--undefined--	--undefined--
296	0.320	0.0003	4	479.810	76.183	2075.840	1697.125	3256.842	226.038	4114.620	176.459	--undefined--	--undefined--
297	0.321	0.0003	4	482.778	78.829	2059.220	1723.781	3262.945	202.466	4121.789	201.784	--undefined--	--undefined--
298	0.322	0.0003	4	485.128	83.301	2053.560	1780.529	3267.848	189.099	4130.083	234.974	--undefined--	--undefined--
299	0.323	0.0003	4	486.706	89.995	2059.339	1878.295	3271.136	184.895	4139.416	277.811	--undefined--	--undefined--
300	0.324	0.0003	4	487.307	99.469	2078.953	2035.341	3272.492	189.515	4149.363	331.978	--undefined--	--undefined--
301	0.325	0.0003	4	486.633	112.423	2118.773	2284.842	3271.365	203.354	4158.719	398.080	--undefined--	--undefined--
302	0.326	0.0003	4	484.236	129.604	2197.777	2696.918	3266.549	227.326	4164.790	474.301	--undefined--	--undefined--
303	0.327	0.0003	4	479.446	151.603	2415.822	3456.599	3255.638	261.938	4162.873	554.862	--undefined--	--undefined--
304	0.328	0.0003	4	471.263	178.543	3196.278	3801.132	3234.857	304.364	4147.155	627.525	--undefined--	--undefined--
305	0.329	0.0003	4	458.242	209.446	3201.582	343.476	3639.539	3374.264	4115.517	669.379	--undefined--	--undefined--
306	0.330	0.0003	4	438.660	240.497	3160.834	363.770	3948.892	3228.910	4080.462	656.132	--undefined--	--undefined--
307	0.331	0.0003	5	351.030	1420.401	412.524	262.203	3124.557	363.168	4064.013	604.094	4200.869	3251.677
308	0.332	0.0003	5	386.227	265.219	507.973	1254.196	3102.325	351.916	4069.760	556.252	4388.457	3341.148
309	0.333	0.0003	5	367.844	256.397	587.668	1162.196	3098.996	337.821	4089.747	533.911	4488.724	3439.360
310	0.334	0.0003	5	357.868	247.405	631.208	1109.980	3114.446	321.210	4118.158	538.189	4476.036	3502.833
311	0.335	0.0003	5	352.721	241.518	661.558	1058.994	3144.584	296.039	4154.093	562.120	4355.479	3473.049
312	0.336	0.0003	5	349.909	238.384	686.931	989.556	3172.636	267.598	4186.045	592.520	4212.443	3299.039
313	0.337	0.0003	5	346.980	234.897	714.134	893.238	3192.924	241.467	4088.702	2969.250	4212.980	634.493
314	0.338	0.0003	5	343.578	229.085	741.667	785.201	3202.967	224.191	3997.741	2525.243	4236.885	702.450
315	0.339	0.0003	5	340.291	220.584	767.361	683.373	3202.909	218.023	3924.735	2023.215	4270.827	814.471
316	0.340	0.0003	5	337.549	210.452	790.435	597.114	3193.093	221.606	3831.270	1543.441	4347.919	940.758
317	0.341	0.0003	5	335.121	199.893	811.081	527.562	3173.640	230.224	3738.275	1217.246	4443.457	973.625
318	0.342	0.0003	5	332.431	189.536	829.616	472.045	3145.980	235.735	3686.169	1008.180	4513.467	959.021
319	0.343	0.0003	5	329.074	179.625	846.145	427.393	3114.711	230.760	3666.679	877.262	4560.452	938.503
320	0.344	0.0003	5	325.104	170.451	860.640	391.284	3085.734	214.883	3669.080	808.336	4588.980	924.124
321	0.345	0.0003	5	320.980	162.561	873.095	362.275	3062.583	193.029	3687.945	787.462	4601.743	922.562
322	0.346	0.0003	5	317.297	156.670	883.607	339.399	3045.960	170.187	3722.618	801.787	4600.463	940.688
323	0.347	0.0003	5	314.561	153.452	892.407	321.820	3035.106	149.387	3776.027	838.345	4585.543	987.364
324	0.348	0.0003	5	313.092	153.377	899.858	308.664	3028.888	131.942	3854.636	878.325	4555.303	1078.463
325	0.349	0.0002	5	313.055	156.652	906.439	298.947	3026.297	118.091	3966.411	876.358	4508.475	1257.784
326	0.350	0.0002	5	314.512	163.219	912.709	291.564	3026.605	107.471	4077.069	743.487	4489.888	1615.381
327	0.351	0.0002	5	317.464	172.740	919.259	285.308	3029.317	99.417	4124.946	578.765	4580.842	2057.661
328	0.352	0.0002	5	321.833	184.514	926.638	278.895	3034.042	93.158	4146.326	461.028	4792.525	2516.349
329	0.353	0.0002	4	327.387	197.352	935.242	270.994	3040.330	87.981	4159.929	377.807	--undefined--	--undefined--
330	0.354	0.0002	4	333.594	209.530	945.139	260.409	3047.545	83.380	4171.101	318.750	--undefined--	--undefined--
331	0.355	0.0002	4	339.527	219.100	955.929	246.504	3054.864	79.176	4182.068	278.052	--undefined--	--undefined--
332	0.356	0.0002	4	344.031	224.625	966.785	229.713	3061.441	75.523	4194.071	252.228	--undefined--	--undefined--
333	0.357	0.0002	4	346.295	225.908	976.778	211.619	3066.656	72.776	4207.971	239.023	--undefined--	--undefined--
334	0.358	0.0002	4	346.426	224.086	985.296	194.288	3070.291	71.311	4224.528	236.887	--undefined--	--undefined--
335	0.359	0.0002	4	345.355	221.013	992.195	179.333	3072.528	71.416	4244.615	244.658	--undefined--	--undefined--
336	0.360	0.0002	4	344.164	218.405	997.682	167.413	3073.808	73.290	4269.339	261.079	--undefined--	--undefined--
337	0.361	0.0002	4	343.542	217.257	1002.113	158.325	3074.650	77.082	4299.944	283.804	--undefined--	--undefined--
338	0.362	0.0002	4	343.695	217.730	1005.872	151.374	3075.485	82.929	4337.092	307.907	--undefined--	--undefined--
339	0.363	0.0002	5	344.511	219.412	1009.312	145.732	3076.509	90.959	4379.141	325.689	4722.937	3894.962
340	0.364	0.0002	5	345.748	221.716	1012.758	140.690	3077.550	101.288	4225.910	3479.246	4420.824	331.548
341	0.365	0.0002	5	347.175	224.213	1016.490	135.782	3078.008	114.017	3945.533	3135.743	4456.040	328.695
342	0.366	0.0002	5	348.639	226.812	1020.716	130.779	3076.877	129.230	3776.761	2864.451	4482.290	326.423
343	0.367	0.0002	5	350.094	229.759	1025.534	125.598	3072.863	146.911	3684.251	2658.799	4500.446	333.053
344	0.368	0.0002	5	351.595	233.570	1030.905	120.230	3064.592	166.638	3651.348	2513.827	4512.059	354.599
345	0.369	0.0002	5	353.274	238.963	1036.668	114.735	3050.975	187.013	3673.000	2430.528	4517.504	397.005
346	0.370	0.0002	5	355.306	246.833	1042.583	109.297	3031.913	205.233	3756.376	2419.297	4514.247	468.517
347	0.371	0.0002	5	357.862	258.268	1048.413	104.294	3009.225	217.737	3932.003	2506.894	4492.223	579.657
348	0.372	0.0002	5	361.060	274.658	1054.020	100.332	2987.002	222.105	4304.985	2782.724	4421.158	712.976
349	0.373	0.0002	4	364.899	297.693	1059.419	98.162	2970.594	218.378	4308.806	722.070	--undefined--	--undefined--
350	0.374	0.0002	4	369.213	328.651	1064.757	98.409	2964.383	208.350	4243.483	651.688	--undefined--	--undefined--
351	0.375	0.0002	4	373.692	366.355	1070.239	101.155	2969.177	194.199	4212.961	605.182	--undefined--	--undefined--
352	0.376	0.0002	4	378.026	404.812	1076.072	105.732	2981.093	178.262	4198.776	592.969	--undefined--	--undefined--
353	0.377	0.0002	4	382.006	433.442	1082.456	110.981	2993.823	163.511	4191.387	609.660	--undefined--	--undefined--
354	0.378	0.0002	4	385.437	442.015	1089.588	115.735	3002.377	152.923	4183.636	650.946	--undefined--	--undefined--
355	0.379	0.0002	4	388.065	427.754	1097.629	119.138	3004.653	148.116	4169.063	714.181	--undefined--	--undefined--
356	0.380	0.0002	4	389.650	396.841	1106.610	120.738	3000.684	148.917	4141.811	793.637	--undefined--	--undefined--
357	0.381	0.0002	4	390.071	358.705	1116.238	120.383	2991.556	153.974	4097.265	875.876	--undefined--	--undefined--
358	0.382	0.0002	4	389.449	320.808	1125.794	118.142	2978.978	161.803	4034.468	940.854	--undefined--	--undefined--
359	0.383	0.0002	4	388.194	287.542	1134.303	114.397	2965.173	172.110	3957.537	973.821	--undefined--	--undefined--
360	0.384	0.0002	4	386.897	261.110	1140.963	109.975	2952.603	186.918	3869.720	975.610	--undefined--	--undefined--
361	0.385	0.0002	4	386.159	242.571	1145.573	106.146	2943.415	210.840	3768.555	948.407	--undefined--	--undefined--
362	0.386	0.0002	5	386.456	232.485	1148.673	104.411	2938.801	250.730	3656.228	882.596	5159.517	1487.297
363	0.387	0.0003	5	388.062	231.019	1151.326	106.250	2937.963	315.602	3545.774	775.768	5010.634	1189.340
364	0.388	0.0003	5	391.001	237.589	1154.774	112.989	2935.224	415.981	3451.293	637.161	4932.825	969.502
365	0.389	0.0003	5	395.023	250.214	1160.241	125.740	2914.589	548.263	3388.589	480.948	4878.855	804.711
366	0.390	0.0003	5	399.624	264.716	1168.926	145.125	2867.217	662.390	3363.754	350.882	4835.341	677.830
367	0.391	0.0003	5	404.138	274.612	1182.143	170.623	2811.541	724.191	3358.016	268.227	4798.628	579.251
368	0.392	0.0003	5	407.819	273.223	1201.390	199.896	2762.400	741.889	3358.565	218.901	4768.155	504.100
369	0.393	0.0003	5	409.924	257.423	1227.952	228.668	2725.418	734.139	3361.279	189.584	4744.035	449.306
370	0.394	0.0003	5	409.980	229.632	1261.966	251.530	2701.346	719.108	3364.877	172.705	4726.369	412.372
371	0.395	0.0003	5	408.133	195.952	1301.665	263.730	2688.874	709.980	3368.968	164.415	4715.146	391.425
372	0.396	0.0003	5	405.115	162.543	1343.637	263.123	2686.597	714.568	3373.442	163.047	4710.295	385.619
373	0.397	0.0003	5	401.806	133.323	1384.014	250.966	2694.015	737.309	3378.216	168.364	4711.817	395.638
374	0.398	0.0003	5	398.852	109.738	1419.799	231.051	2712.168	781.371	3383.064	181.421	4720.021	424.466
375	0.399	0.0003	5	396.558	91.596	1449.588	207.842	2744.792	849.527	3387.388	205.050	4735.954	478.861
376	0.400	0.0003	5	394.977	77.985	1473.421	184.890	2800.955	942.154	3389.675	245.438	4762.458	572.662
377	0.401	0.0003	5	394.035	67.853	1492.120	164.301	2901.376	1047.241	3385.560	316.992	4807.696	735.701
378	0.402	0.0003	5	393.614	60.297	1506.659	147.196	3100.938	1095.259	3354.497	464.126	4905.332	1046.107
379	0.403	0.0003	4	393.601	54.710	1517.969	134.430	3185.172	471.085	3557.116	1125.864	--undefined--	--undefined--
380	0.404	0.0003	4	393.913	50.847	1527.018	126.814	3127.334	321.380	3837.205	909.851	--undefined--	--undefined--
381	0.405	0.0003	4	394.489	48.670	1534.666	124.841	3097.399	224.569	3939.252	699.452	--undefined--	--undefined--
382	0.406	0.0003	4	395.234	48.041	1541.221	128.538	3080.796	160.662	3991.686	587.321	--undefined--	--undefined--
383	0.407	0.0003	4	395.992	48.602	1546.336	137.459	3073.239	120.776	4023.406	535.058	--undefined--	--undefined--
384	0.408	0.0004	4	396.583	49.886	1549.430	150.390	3071.216	97.105	4040.874	519.489	--undefined--	--undefined--
385	0.409	0.0004	4	396.870	51.457	1550.333	165.068	3071.940	83.698	4046.982	526.012	--undefined--	--undefined--
386	0.410	0.0004	4	396.812	53.001	1549.818	178.617	3073.576	76.896	4044.561	543.734	--undefined--	--undefined--
387	0.411	0.0004	4	396.474	54.452	1549.650	188.714	3075.067	74.766	4037.076	562.898	--undefined--	--undefined--
388	0.412	0.0004	4	396.016	56.065	1551.906	194.576	3075.896	76.351	4028.449	574.219	--undefined--	--undefined--
389	0.413	0.0004	4	395.623	58.399	1557.982	197.042	3075.985	81.098	4022.271	570.857	--undefined--	--undefined--
390	0.414	0.0004	4	395.455	62.215	1568.035	197.940	3075.729	88.481	4021.007	551.404	--undefined--	--undefined--
391	0.415	0.0004	4	395.621	68.436	1581.244	199.395	3076.043	97.852	4025.985	519.891	--undefined--	--undefined--
392	0.416	0.0004	4	396.192	78.137	1596.529	203.384	3078.245	108.506	4037.800	482.324	--undefined--	--undefined--
393	0.417	0.0004	4	397.206	92.516	1613.151	211.490	3083.706	119.931	4056.186	443.536	--undefined--	--undefined--
394	0.418	0.0004	4	398.661	112.755	1630.909	224.796	3093.409	132.023	4079.572	406.490	--undefined--	--undefined--
395	0.419	0.0004	4	400.491	139.769	1650.005	243.893	3107.714	145.122	4105.246	373.144	--undefined--	--undefined--
396	0.420	0.0004	4	402.560	173.885	1670.835	268.881	3126.433	159.785	4130.326	345.154	--undefined--	--undefined--
397	0.421	0.0005	4	404.679	214.565	1693.779	299.160	3149.037	176.365	4152.723	323.672	--undefined--	--undefined--
398	0.422	0.0005	4	406.678	260.224	1718.965	332.936	3174.757	194.582	4171.358	309.052	--undefined--	--undefined--
399	0.423	0.0005	4	408.449	308.018	1745.798	366.633	3202.527	213.513	4185.852	301.492	--undefined--	--undefined--
400	0.424	0.0005	4	409.945	353.521	1772.290	394.791	3230.873	232.242	4196.273	302.332	--undefined--	--undefined--
401	0.425	0.0005	4	411.162	391.022	1795.095	411.354	3257.990	250.516	4202.753	314.659	--undefined--	--undefined--
402	0.426	0.0005	4	412.098	415.539	1811.200	412.438	3282.129	268.277	4204.575	342.550	--undefined--	--undefined--
403	0.427	0.0005	4	412.625	425.321	1820.039	398.823	3302.134	284.329	4198.938	388.849	--undefined--	--undefined--
404	0.428	0.0005	4	412.404	422.159	1823.448	375.901	3317.852	295.803	4180.448	449.555	--undefined--	--undefined--
405	0.429	0.0005	4	411.127	409.833	1823.766	350.866	3330.053	299.622	4145.602	504.998	--undefined--	--undefined--
406	0.430	0.0005	5	408.844	392.866	1822.446	329.619	3339.646	294.787	4103.238	530.793	5218.834	927.164
407	0.431	0.0005	5	405.957	375.929	1819.925	315.593	3346.910	283.012	4068.170	527.294	5159.062	716.023
408	0.432	0.0005	5	402.919	363.164	1816.083	310.110	3351.624	267.321	4047.079	508.169	5142.336	586.494
409	0.433	0.0005	5	399.971	357.524	1810.779	313.064	3353.721	250.491	4040.801	481.829	5140.495	513.107
410	0.434	0.0009	5	397.074	360.472	1804.311	323.441	3353.643	234.527	4048.026	451.380	5145.217	480.232
411	0.435	0.0009	5	394.002	372.037	1797.643	339.681	3352.255	220.884	4065.598	418.114	5153.923	477.620
412	0.436	0.0009	5	390.510	391.052	1792.339	360.051	3350.660	210.611	4088.817	383.657	5166.132	497.473
413	0.437	0.0009	5	386.501	415.472	1790.218	383.024	3350.098	204.277	4112.842	350.632	5182.165	533.338
414	0.438	0.0009	5	382.146	442.707	1792.946	407.456	3351.855	201.935	4134.112	321.995	5202.827	580.154
415	0.439	0.0009	5	377.899	469.975	1801.708	432.442	3357.066	203.171	4150.755	299.983	5229.845	634.464
416	0.440	0.0009	5	374.367	494.819	1816.944	456.989	3366.392	207.096	4162.122	285.631	5266.992	693.904
417	0.441	0.0009	5	372.001	515.971	1837.990	479.841	3379.601	212.306	4168.089	278.914	5322.647	755.615
418	0.442	0.0009	5	370.673	534.536	1862.567	499.849	3395.150	217.151	4168.517	279.138	5430.068	814.000
419	0.443	0.001	4	369.352	555.002	1886.471	516.855	3410.225	220.563	4163.043	285.340	--undefined--	--undefined--
420	0.444	0.001	4	365.988	585.293	1904.055	532.114	3421.735	222.894	4151.370	296.460	--undefined--	--undefined--
421	0.445	0.001	4	357.260	635.492	1909.706	546.936	3427.844	225.604	4134.053	310.995	--undefined--	--undefined--
422	0.446	0.001	4	337.510	715.637	1899.998	559.987	3428.813	229.976	4113.244	326.538	--undefined--	--undefined--
423	0.447	0.001	4	295.966	832.729	1875.824	565.907	3426.613	236.442	4092.433	340.129	--undefined--	--undefined--
424	0.448	0.001	4	207.406	985.945	1843.335	557.771	3423.789	245.136	4074.751	349.069	--undefined--	--undefined--
425	0.449	0.001	3	1812.270	532.928	3422.398	256.662	4061.120	350.966	--undefined--	--undefined--	--undefined--	--undefined--
426	0.450	0.001	4	1791.509	496.796	3423.587	272.083	4050.224	343.639	5441.715	700.468	--undefined--	--undefined--
427	0.451	0.001	4	1785.171	458.860	3427.828	292.212	4040.311	326.151	5358.723	671.456	--undefined--	--undefined--
428	0.452	0.001	4	1792.800	425.505	3435.338	316.883	4030.873	300.100	5308.001	641.399	--undefined--	--undefined--
429	0.453	0.001	4	1811.699	397.735	3446.403	344.810	4022.722	269.606	5270.517	611.682	--undefined--	--undefined--
430	0.454	0.001	4	1838.326	373.350	3461.568	374.179	4016.988	239.809	5242.961	585.158	--undefined--	--undefined--
431	0.455	0.001	5	102.687	1194.660	1868.839	349.992	3481.718	403.464	4014.364	215.097	5223.137	564.409
432	0.456	0.001	5	242.677	1071.917	1899.722	326.918	3508.029	431.615	4015.131	198.304	5208.643	551.316
433	0.457	0.001	5	304.575	960.928	1928.419	304.940	3541.610	457.163	4019.560	190.915	5197.122	547.381
434	0.458	0.001	5	339.043	865.220	1953.473	285.456	3582.339	476.745	4028.267	193.377	5186.734	553.593
435	0.459	0.001	5	359.286	784.477	1974.193	269.978	3626.680	485.175	4042.367	204.461	5176.366	569.195
436	0.460	0.001	5	371.224	718.768	1990.291	260.436	3666.174	480.285	4063.031	219.110	5165.436	589.959
437	0.461	0.001	5	377.486	670.809	2001.683	259.515	3690.670	469.960	4089.488	227.454	5153.623	608.170
438	0.462	0.001	5	379.180	645.041	2008.311	270.142	3695.334	468.189	4117.387	221.571	5141.114	616.165
439	0.463	0.001	5	376.690	644.945	2009.964	294.141	3682.130	481.940	4142.058	203.396	5128.941	610.830
440	0.464	0.001	5	369.748	671.185	2006.565	330.435	3656.600	508.610	4161.901	180.738	5118.281	594.514
441	0.465	0.001	5	357.599	720.783	1999.324	373.385	3626.406	542.198	4177.324	160.311	5109.419	573.086
442	0.466	0.001	5	340.176	785.638	1992.068	412.756	3600.173	578.285	4189.023	145.633	5101.765	553.396
443	0.467	0.001	5	320.617	850.950	1990.735	436.915	3584.995	614.456	4197.526	137.557	5094.631	540.278
444	0.468	0.001	5	306.526	898.361	1999.865	438.183	3584.169	647.058	4203.294	135.265	5087.949	534.475
445	0.469	0.001	5	304.696	916.262	2018.788	416.755	3596.485	669.617	4206.828	137.174	5082.741	533.611
446	0.470	0.001	5	313.272	908.237	2041.986	380.827	3617.231	677.188	4208.648	141.778	5081.328	535.886
447	0.471	0.001	5	324.263	890.081	2063.047	342.755	3640.900	672.728	4209.206	148.385	5087.262	543.843
448	0.472	0.001	5	331.155	881.244	2077.459	313.910	3664.083	667.997	4208.781	157.580	5105.283	565.851
449	0.473	0.001	5	330.118	900.506	2082.594	302.202	3686.527	678.815	4207.418	171.145	5142.662	615.796
450	0.474	0.001	5	315.080	967.573	2076.683	312.775	3711.191	720.112	4205.009	191.387	5217.819	714.436
451	0.475	0.001	4	263.291	1110.983	2058.063	349.494	3745.657	802.818	4201.557	220.117	--undefined--	--undefined--
452	0.476	0.001	3	2024.492	415.182	3806.940	926.503	4197.611	257.651	--undefined--	--undefined--	--undefined--	--undefined--
453	0.477	0.001	3	1971.416	508.747	3922.802	1031.923	4194.704	301.745	--undefined--	--undefined--	--undefined--	--undefined--
454	0.478	0.001	4	1889.192	610.588	2272.322	3876.383	4046.522	986.574	4195.322	345.264	--undefined--	--undefined--
455	0.479	0.001	4	1782.690	648.446	2425.827	2352.323	4103.651	921.153	4200.371	372.316	--undefined--	--undefined--
456	0.480	0.001	4	1705.078	608.467	2512.024	1875.785	4130.360	955.629	4204.242	368.099	--undefined--	--undefined--
457	0.481	0.001	4	1666.788	569.446	2581.624	1704.017	4157.140	1104.007	4201.004	341.963	--undefined--	--undefined--
458	0.482	0.001	4	1650.763	554.344	2668.750	1665.241	4190.387	311.857	4200.452	1378.765	--undefined--	--undefined--
459	0.483	0.001	4	1645.451	557.935	2803.299	1664.849	4174.109	284.783	4298.678	1869.277	--undefined--	--undefined--
460	0.484	0.001	4	1643.135	568.847	2975.481	1546.394	4155.271	260.535	4731.021	2861.871	--undefined--	--undefined--
461	0.485	0.001	3	1638.258	575.364	3080.435	1307.612	4137.510	238.983	--undefined--	--undefined--	--undefined--	--undefined--
462	0.486	0.001	4	1628.317	569.434	3123.388	1119.158	4123.549	221.578	5402.086	605.097	--undefined--	--undefined--
463	0.487	0.001	4	1614.757	549.318	3145.414	996.963	4114.825	209.742	5291.210	462.750	--undefined--	--undefined--
464	0.488	0.001	4	1601.486	519.112	3160.805	923.387	4111.846	203.569	5259.799	380.115	--undefined--	--undefined--
465	0.489	0.001	4	1591.997	485.374	3173.814	883.619	4114.509	201.532	5249.799	331.196	--undefined--	--undefined--
466	0.490	0.001	4	1587.733	453.535	3185.171	866.391	4122.101	200.859	5249.381	303.155	--undefined--	--undefined--
467	0.491	0.001	4	1588.272	426.596	3194.432	864.701	4133.048	198.590	5254.016	289.121	--undefined--	--undefined--
468	0.492	0.001	4	1592.213	405.920	3201.567	877.152	4144.932	193.255	5261.741	286.230	--undefined--	--undefined--
469	0.493	0.001	4	1597.949	392.588	3208.063	907.704	4155.307	186.094	5271.928	295.033	--undefined--	--undefined--
470	0.494	0.0010	4	1604.112	388.249	3216.555	963.536	4162.911	180.471	5285.132	318.992	--undefined--	--undefined--
471	0.495	0.0010	4	1609.623	395.396	3228.595	1053.065	4168.078	180.028	5303.704	363.589	--undefined--	--undefined--
472	0.496	0.0010	4	1613.478	417.448	3241.014	1185.422	4172.033	187.173	5333.831	434.723	--undefined--	--undefined--
473	0.497	0.0005	4	1614.524	458.583	3240.524	1369.259	4175.875	202.200	5394.693	535.773	--undefined--	--undefined--
474	0.498	0.0004	3	1611.483	522.678	3194.586	1596.970	4180.092	222.684	--undefined--	--undefined--	--undefined--	--undefined--
475	0.499	0.0004	3	1603.738	610.766	3062.374	1765.149	4184.782	244.084	--undefined--	--undefined--	--undefined--	--undefined--
476	0.500	0.0003	3	1593.798	717.855	2907.279	1724.097	4189.888	262.391	--undefined--	--undefined--	--undefined--	--undefined--
477	0.501	0.0003	3	1590.850	831.203	2814.457	1600.182	4194.891	276.361	--undefined--	--undefined--	--undefined--	--undefined--
478	0.502	0.0003	3	1609.818	925.085	2774.028	1527.765	4198.507	286.831	--undefined--	--undefined--	--undefined--	--undefined--
479	0.503	0.0003	3	1655.878	947.257	2770.384	1527.401	4198.755	294.926	--undefined--	--undefined--	--undefined--	--undefined--
480	0.504	0.0003	3	1700.388	856.765	2788.031	1534.131	4193.389	301.241	--undefined--	--undefined--	--undefined--	--undefined--
481	0.505	0.0003	3	1714.420	704.160	2787.614	1481.600	4181.301	305.407	--undefined--	--undefined--	--undefined--	--undefined--
482	0.506	0.0003	4	1706.873	558.616	2756.144	1381.971	4164.276	305.884	5444.034	547.318	--undefined--	--undefined--
483	0.507	0.0003	3	1692.229	446.445	2715.327	1275.750	4146.814	301.964	--undefined--	--undefined--	--undefined--	--undefined--
484	0.508	0.0003	3	1675.991	368.729	2682.106	1196.562	4133.278	296.170	--undefined--	--undefined--	--undefined--	--undefined--
485	0.509	0.0003	3	1659.014	317.700	2663.225	1160.500	4125.365	292.735	--undefined--	--undefined--	--undefined--	--undefined--
486	0.510	0.0003	4	1641.217	283.989	2662.727	1171.245	4122.346	294.348	5351.077	655.498	--undefined--	--undefined--
487	0.511	0.0003	4	1623.037	259.368	2685.110	1226.236	4122.488	300.677	5277.009	568.383	--undefined--	--undefined--
488	0.512	0.0003	4	1605.927	238.152	2735.019	1317.246	4123.718	308.537	5230.167	478.509	--undefined--	--undefined--
489	0.513	0.0003	4	1592.004	218.292	2814.830	1425.220	4123.605	313.568	5201.199	404.844	--undefined--	--undefined--
490	0.514	0.0003	4	1582.742	200.886	2917.269	1513.579	4119.970	312.967	5184.870	349.783	--undefined--	--undefined--
491	0.515	0.0003	4	1577.963	187.866	3014.043	1552.951	4112.438	306.590	5177.806	311.501	--undefined--	--undefined--
492	0.516	0.0003	5	547.667	3515.263	1576.192	180.223	3077.413	1570.635	4102.986	295.900	5177.017	287.425
493	0.517	0.0003	5	1105.776	2749.278	1575.655	178.028	3108.701	1607.371	4094.644	283.241	5179.978	275.941
494	0.518	0.0003	5	1325.790	2298.998	1574.814	181.262	3121.593	1678.218	4089.830	271.442	5185.086	276.896
495	0.519	0.0003	5	1477.931	1959.997	1572.293	190.451	3130.927	1782.865	4089.691	262.990	5191.871	291.277
496	0.520	0.0003	5	1566.375	206.862	1600.151	1645.504	3154.046	1904.083	4094.396	259.433	5201.031	320.763
497	0.521	0.0003	5	1553.948	231.524	1695.121	1325.499	3206.329	1992.455	4103.726	261.267	5214.598	367.286
498	0.522	0.0003	5	1529.402	258.749	1767.778	1020.168	3283.973	1983.706	4117.468	267.696	5236.385	432.099
499	0.523	0.0003	5	1492.598	264.421	1828.491	774.891	3363.342	1860.317	4135.384	275.813	5272.748	513.749
500	0.524	0.0003	5	1458.894	240.459	1873.028	606.246	3423.610	1667.477	4156.448	280.273	5335.048	605.524
501	0.525	0.0003	4	1434.924	208.046	1900.627	492.674	3459.727	1470.348	4177.898	276.119	--undefined--	--undefined--
502	0.526	0.0003	4	1417.625	179.938	1916.108	416.483	3478.931	1313.475	4196.299	263.624	--undefined--	--undefined--
503	0.527	0.0003	4	1403.289	159.300	1923.360	367.340	3490.963	1211.569	4210.127	247.740	--undefined--	--undefined--
504	0.528	0.0003	4	1389.479	145.532	1924.997	338.480	3502.482	1162.330	4220.024	233.082	--undefined--	--undefined--
505	0.529	0.0003	4	1375.008	137.030	1922.888	325.460	3517.321	1159.505	4227.229	221.781	--undefined--	--undefined--
506	0.530	0.0003	4	1359.647	132.313	1918.425	325.893	3538.433	1199.149	4232.593	214.271	--undefined--	--undefined--
507	0.531	0.0003	4	1343.836	130.442	1912.616	339.415	3569.707	1281.937	4236.408	210.363	--undefined--	--undefined--
508	0.532	0.0003	4	1328.432	131.094	1906.128	367.663	3618.049	1413.329	4238.504	209.692	--undefined--	--undefined--
509	0.533	0.0003	4	1314.593	134.348	1899.202	414.076	3695.838	1598.786	4238.387	211.523	--undefined--	--undefined--
510	0.534	0.0003	4	1303.855	140.212	1890.707	482.943	3816.073	1827.023	4235.527	214.052	--undefined--	--undefined--
511	0.535	0.0003	4	1298.384	148.446	1873.658	577.020	3953.912	2095.877	4230.100	214.133	--undefined--	--undefined--
512	0.536	0.0003	4	1301.084	160.369	1822.892	692.041	4008.485	2674.943	4223.537	210.129	--undefined--	--undefined--
513	0.537	0.0003	4	1315.107	182.053	1692.899	775.793	3304.993	3213.921	4216.238	207.732	--undefined--	--undefined--
514	0.538	0.0003	4	1343.850	218.264	1515.966	697.703	2961.981	2477.211	4204.460	218.943	--undefined--	--undefined--
515	0.539	0.0003	4	1384.899	562.798	1394.420	236.445	2853.699	2154.674	4182.184	250.156	--undefined--	--undefined--
516	0.540	0.0003	4	1328.011	522.119	1425.568	189.757	2770.233	2031.828	4146.155	289.337	--undefined--	--undefined--
517	0.541	0.0003	4	1311.771	500.929	1435.177	154.533	2687.833	1940.544	4103.234	310.489	--undefined--	--undefined--
518	0.542	0.0003	4	1304.681	487.566	1439.806	129.378	2619.857	1848.645	4067.523	306.038	--undefined--	--undefined--
519	0.543	0.0003	4	1301.757	479.825	1442.887	110.113	2578.431	1792.594	4044.427	290.055	--undefined--	--undefined--
520	0.544	0.0003	4	1303.460	476.498	1445.422	95.156	2564.008	1801.994	4030.182	274.116	--undefined--	--undefined--
521	0.545	0.0003	4	1311.686	475.971	1447.839	83.833	2583.619	1910.375	4020.097	263.363	--undefined--	--undefined--
522	0.546	0.0003	4	1330.317	473.925	1450.348	76.185	2686.548	2206.217	4011.439	261.910	--undefined--	--undefined--
523	0.547	0.0003	4	1362.112	460.199	1453.063	72.511	3187.181	2720.862	4003.229	278.170	--undefined--	--undefined--
524	0.548	0.0003	4	1400.226	428.474	1456.093	72.408	3762.712	1660.072	3996.877	333.334	--undefined--	--undefined--
525	0.549	0.0003	4	1435.514	393.182	1459.588	75.266	3832.739	822.980	4022.775	488.279	--undefined--	--undefined--
526	0.550	0.0003	4	1462.957	84.852	1473.013	354.675	3751.122	505.648	4117.975	465.691	--undefined--	--undefined--
527	0.551	0.0003	4	1460.043	108.288	1521.660	283.311	3715.018	427.490	4128.508	393.110	--undefined--	--undefined--
528	0.552	0.0003	4	1445.025	115.706	1576.830	205.097	3683.776	422.010	4107.587	346.319	--undefined--	--undefined--
529	0.553	0.0003	4	1436.246	104.500	1612.864	150.030	3646.636	444.974	4077.258	308.079	--undefined--	--undefined--
530	0.554	0.0003	4	1432.823	92.897	1631.744	115.313	3609.308	467.643	4050.502	274.670	--undefined--	--undefined--
531	0.555	0.0002	4	1432.137	83.246	1640.718	95.158	3580.130	484.567	4030.237	249.130	--undefined--	--undefined--
532	0.556	0.0002	4	1433.231	75.412	1644.700	83.351	3560.431	499.073	4015.018	230.360	--undefined--	--undefined--
533	0.557	0.0002	4	1435.524	69.104	1646.333	76.053	3548.467	512.018	4003.471	215.877	--undefined--	--undefined--
534	0.558	0.0002	4	1438.582	63.974	1646.908	71.297	3542.555	522.963	3994.687	204.056	--undefined--	--undefined--
535	0.559	0.0002	4	1442.126	59.715	1647.028	68.130	3541.493	531.869	3987.960	194.143	--undefined--	--undefined--
536	0.560	0.0002	4	1445.988	56.115	1646.972	66.119	3544.462	539.336	3982.701	185.880	--undefined--	--undefined--
537	0.561	0.0003	4	1450.072	53.066	1646.875	65.123	3551.019	546.363	3978.445	179.275	--undefined--	--undefined--
538	0.562	0.0003	4	1454.325	50.553	1646.801	65.216	3561.179	554.124	3974.833	174.544	--undefined--	--undefined--
539	0.563	0.0003	4	1458.722	48.674	1646.780	66.709	3575.602	563.897	3971.591	172.195	--undefined--	--undefined--
540	0.564	0.0003	4	1463.277	47.696	1646.816	70.319	3596.080	576.956	3968.479	173.320	--undefined--	--undefined--
541	0.565	0.0003	4	1468.084	48.265	1646.870	77.705	3626.755	593.757	3965.190	180.387	--undefined--	--undefined--
542	0.566	0.0003	4	1473.563	51.838	1646.861	93.053	3676.390	609.916	3960.901	199.316	--undefined--	--undefined--
543	0.567	0.0003	4	1480.964	59.965	1646.879	125.342	3757.993	613.459	3950.503	242.720	--undefined--	--undefined--
544	0.568	0.0003	4	1488.695	73.144	1640.513	178.487	3885.342	699.036	3906.767	270.414	--undefined--	--undefined--
545	0.569	0.0003	4	1503.578	139.183	1564.392	235.009	3893.953	204.607	3964.779	1135.817	--undefined--	--undefined--
546	0.570	0.0003	4	1354.557	481.260	1534.055	79.253	3893.584	192.712	4008.881	1833.468	--undefined--	--undefined--
547	0.571	0.0003	4	1197.408	530.250	1513.231	85.355	3870.250	238.609	4019.548	2196.565	--undefined--	--undefined--
548	0.572	0.0003	4	1148.178	571.629	1473.397	124.540	3825.067	260.458	3937.399	2460.202	--undefined--	--undefined--
549	0.573	0.0003	4	1133.719	755.106	1424.782	152.772	3666.220	3036.066	3798.199	224.414	--undefined--	--undefined--
550	0.574	0.0003	4	1119.181	985.435	1395.347	155.028	3206.988	3279.118	3790.644	190.073	--undefined--	--undefined--
551	0.575	0.0003	4	1134.236	1197.719	1381.250	154.388	2860.454	3042.399	3790.076	169.770	--undefined--	--undefined--
552	0.576	0.0003	4	1220.729	1427.865	1372.009	154.244	2689.800	2835.776	3791.707	159.124	--undefined--	--undefined--
553	0.577	0.0003	4	1363.900	152.360	1432.896	1564.424	2642.351	2846.356	3794.505	154.796	--undefined--	--undefined--
554	0.578	0.0003	4	1356.465	146.424	1657.643	1381.278	2767.012	2985.363	3798.281	155.297	--undefined--	--undefined--
555	0.579	0.0003	4	1350.683	135.648	1778.252	1111.669	3014.430	2972.794	3802.840	160.367	--undefined--	--undefined--
556	0.580	0.0003	4	1347.377	121.827	1842.466	900.073	3266.031	2803.115	3807.823	170.397	--undefined--	--undefined--
557	0.581	0.0003	4	1346.131	107.862	1880.962	747.933	3487.849	2574.878	3812.668	186.009	--undefined--	--undefined--
558	0.582	0.0003	4	1345.587	95.900	1904.177	641.843	3686.239	2340.978	3816.595	207.674	--undefined--	--undefined--
559	0.583	0.0003	4	1344.283	86.825	1916.008	570.624	3818.631	235.319	3875.359	2108.080	--undefined--	--undefined--
560	0.584	0.0003	4	1341.263	80.540	1918.460	525.129	3817.756	267.988	4063.135	1841.964	--undefined--	--undefined--
561	0.585	0.0003	4	1336.268	76.409	1913.169	497.607	3813.251	303.715	4224.344	1483.520	--undefined--	--undefined--
562	0.586	0.0003	4	1329.590	73.686	1901.648	482.089	3805.350	340.071	4298.913	1097.832	--undefined--	--undefined--
563	0.587	0.0003	4	1321.807	71.836	1885.100	475.035	3795.575	376.365	4314.496	817.647	--undefined--	--undefined--
564	0.588	0.0003	4	1313.585	70.694	1864.261	475.489	3785.676	415.984	4313.130	630.999	--undefined--	--undefined--
565	0.589	0.0003	4	1305.603	70.467	1839.332	484.769	3776.083	466.054	4306.112	503.269	--undefined--	--undefined--
566	0.590	0.0003	4	1298.555	71.662	1809.850	506.208	3765.086	536.013	4295.929	411.453	--undefined--	--undefined--
567	0.591	0.0003	4	1293.203	74.992	1774.399	545.331	3747.964	635.908	4283.928	339.603	--undefined--	--undefined--
568	0.592	0.0003	4	1290.535	81.168	1730.017	610.811	3716.202	771.010	4272.693	277.240	--undefined--	--undefined--
569	0.593	0.0003	4	1292.070	90.081	1670.862	716.918	3660.171	932.147	4265.418	221.644	--undefined--	--undefined--
570	0.594	0.0003	4	1299.731	98.044	1585.233	888.753	3576.116	1091.190	4263.129	176.118	--undefined--	--undefined--
571	0.595	0.0003	4	1312.457	95.191	1449.125	1165.485	3471.711	1203.401	4264.380	143.912	--undefined--	--undefined--
572	0.596	0.0003	4	1196.598	1567.224	1322.970	79.080	3370.224	1216.511	4267.237	125.854	--undefined--	--undefined--
573	0.597	0.0003	4	536.772	1507.299	1327.783	61.176	3302.569	1116.916	4270.488	121.474	--undefined--	--undefined--
574	0.598	0.0003	4	489.761	798.439	1328.622	48.536	3266.885	962.765	4273.242	130.742	--undefined--	--undefined--
575	0.599	0.0003	4	451.554	565.416	1327.183	43.290	3225.792	817.894	4273.001	156.297	--undefined--	--undefined--
576	0.600	0.0003	4	412.723	458.690	1324.285	47.476	3159.367	706.411	4263.905	205.621	--undefined--	--undefined--
577	0.601	0.0003	4	381.328	420.467	1319.826	64.761	3077.860	632.318	4235.854	288.943	--undefined--	--undefined--
578	0.602	0.0003	5	362.658	411.579	1313.669	95.045	3000.825	591.299	4178.970	390.656	5321.911	1478.556
579	0.603	0.0003	5	353.843	405.312	1304.107	142.187	2919.700	555.835	4074.130	467.966	4985.466	1026.997
580	0.604	0.0003	5	355.611	391.378	1293.445	191.681	2851.448	515.501	3972.135	455.910	4897.772	763.516
581	0.605	0.0003	5	364.797	368.198	1285.155	231.582	2802.027	472.691	3905.304	409.247	4844.149	613.564
582	0.606	0.0003	5	379.857	335.401	1280.636	263.136	2766.576	431.506	3862.536	362.913	4791.524	505.935
583	0.607	0.0003	5	396.087	301.324	1279.954	286.230	2745.174	400.595	3838.638	331.188	4747.712	431.566
584	0.608	0.0003	5	413.127	265.490	1281.526	307.578	2730.300	374.903	3822.902	308.098	4710.409	372.423
585	0.609	0.0003	5	429.814	229.703	1284.621	328.524	2719.688	353.039	3812.323	291.810	4680.287	325.778
586	0.610	0.0003	5	445.246	195.685	1288.664	348.887	2712.027	334.176	3805.264	281.085	4656.770	289.679
587	0.611	0.0003	5	458.833	164.942	1293.032	367.945	2706.505	318.086	3800.600	275.008	4638.958	262.340
588	0.612	0.0003	5	470.316	138.563	1296.967	385.202	2702.577	305.089	3797.386	272.777	4626.156	242.286
589	0.613	0.0003	5	479.705	117.083	1299.588	400.746	2699.817	295.934	3794.735	273.553	4618.030	228.408
590	0.614	0.0003	5	487.173	100.504	1299.949	415.036	2697.826	291.532	3791.850	276.357	4614.564	219.882
591	0.615	0.0003	5	492.950	88.431	1297.127	428.242	2696.160	292.601	3788.186	280.075	4615.935	216.041
592	0.616	0.0003	5	497.246	80.243	1290.407	439.464	2694.292	299.286	3783.685	283.660	4622.373	216.316
593	0.617	0.0003	5	500.219	75.220	1279.642	446.305	2691.631	310.894	3778.930	286.474	4634.045	220.245
594	0.618	0.0003	5	501.959	72.596	1265.671	445.196	2687.549	325.805	3775.047	288.540	4651.014	227.564
595	0.619	0.0003	5	502.507	71.570	1250.488	432.630	2681.344	341.583	3773.408	290.466	4673.260	238.276
596	0.620	0.0003	5	501.894	71.328	1236.802	406.901	2672.143	355.225	3775.257	293.004	4700.661	252.571
597	0.621	0.0003	5	500.200	71.157	1226.994	369.354	2658.907	363.484	3781.403	296.445	4732.839	270.449
598	0.622	0.0003	5	497.600	70.621	1222.072	324.151	2640.830	363.425	3791.934	300.202	4768.798	291.069
599	0.623	0.0003	5	494.334	69.667	1221.404	276.657	2618.162	353.401	3805.900	303.057	4806.536	312.211
600	0.624	0.0003	5	490.664	68.571	1223.353	231.672	2592.898	334.138	3821.129	304.277	4843.031	330.584
601	0.625	0.0003	5	486.849	67.760	1226.219	192.439	2568.540	308.917	3834.548	304.903	4875.009	343.366
602	0.626	0.0003	5	483.150	67.652	1228.825	160.454	2548.781	282.302	3843.101	307.895	4900.341	350.030
603	0.627	0.0003	5	479.821	68.516	1230.614	135.749	2535.974	258.332	3844.586	316.679	4919.011	352.558
604	0.628	0.0003	5	477.065	70.393	1231.497	117.413	2530.440	239.503	3837.747	333.051	4932.843	353.709
605	0.629	0.0003	5	474.992	73.079	1231.654	104.128	2530.829	226.758	3821.993	355.344	4944.377	355.198
606	0.630	0.0003	5	473.582	76.170	1231.361	94.529	2534.929	219.848	3797.752	377.294	4955.855	357.567
607	0.631	0.0003	5	472.710	79.187	1230.892	87.444	2540.393	217.660	3767.828	389.509	4968.613	361.739
608	0.632	0.0003	5	472.218	81.827	1230.487	82.104	2545.347	218.601	3738.082	385.378	4982.822	370.480
609	0.633	0.0003	5	471.984	84.203	1230.350	78.252	2548.800	221.206	3714.960	366.785	4997.670	387.538
610	0.634	0.0003	5	471.942	86.750	1230.616	75.967	2550.502	224.596	3701.564	342.003	5011.992	415.149
611	0.635	0.0003	5	472.050	89.855	1231.315	75.342	2550.483	228.309	3696.910	318.944	5024.885	452.833
612	0.636	0.0003	5	472.276	93.589	1232.404	76.314	2548.849	231.914	3698.248	301.893	5036.099	498.460
613	0.637	0.0003	5	472.585	97.722	1233.838	78.690	2545.887	235.037	3703.184	292.258	5046.431	550.232
614	0.638	0.0003	5	472.942	101.893	1235.623	82.256	2542.111	237.632	3710.407	290.098	5058.393	608.305
615	0.639	0.0003	5	473.317	105.827	1237.852	86.885	2538.161	240.083	3719.583	294.955	5077.309	675.542
616	0.640	0.0003	5	473.682	109.474	1240.700	92.598	2534.676	243.004	3730.924	305.964	5113.098	757.261
617	0.641	0.0003	5	474.001	112.989	1244.387	99.528	2532.168	246.857	3744.504	321.575	5184.376	859.350
618	0.642	0.0003	5	474.211	116.576	1249.096	107.803	2530.875	251.649	3759.269	339.526	5349.438	983.543
619	0.643	0.0003	4	474.219	120.342	1254.886	117.430	2530.650	256.921	3772.343	357.709	--undefined--	--undefined--
620	0.644	0.0003	4	473.907	124.284	1261.633	128.282	2530.987	261.962	3779.560	375.343	--undefined--	--undefined--
621	0.645	0.0003	4	473.163	128.343	1269.025	140.139	2531.118	265.923	3777.028	392.741	--undefined--	--undefined--
622	0.646	0.0003	4	471.915	132.468	1276.642	152.736	2530.202	267.827	3762.527	409.464	--undefined--	--undefined--
623	0.647	0.0003	4	470.168	136.741	1284.120	165.871	2527.687	266.819	3736.272	422.789	--undefined--	--undefined--
624	0.648	0.0003	4	468.013	141.478	1291.354	179.539	2523.671	262.718	3701.168	428.460	--undefined--	--undefined--
625	0.649	0.0003	4	465.598	147.207	1298.597	193.961	2518.888	256.411	3662.196	423.768	--undefined--	--undefined--
626	0.650	0.0003	4	463.063	154.514	1306.409	209.383	2514.303	249.607	3624.643	409.947	--undefined--	--undefined--
627	0.651	0.0003	4	460.478	163.870	1315.446	225.715	2510.715	244.071	3592.370	391.351	--undefined--	--undefined--
628	0.652	0.0003	5	457.801	175.559	1326.163	242.207	2508.633	240.952	3567.337	372.972	5321.327	703.180
629	0.653	0.0003	5	454.885	189.777	1338.505	257.432	2508.341	240.565	3550.048	358.768	5232.206	650.012
630	0.654	0.0003	5	451.521	206.803	1351.767	269.689	2509.973	242.567	3540.138	351.243	5169.769	613.188
631	0.655	0.0003	5	447.509	227.108	1364.761	277.604	2513.523	246.302	3536.818	351.703	5120.945	588.100
632	0.656	0.0003	5	442.717	251.237	1376.246	280.473	2518.840	251.131	3539.051	360.606	5082.820	572.193
633	0.657	0.0003	5	437.087	279.499	1385.350	278.161	2525.647	256.616	3545.466	377.698	5054.212	564.465
634	0.658	0.0003	5	430.625	311.721	1391.784	270.890	2533.603	262.653	3554.128	401.927	5033.782	564.300
635	0.659	0.0003	5	423.359	347.316	1395.792	259.237	2542.411	269.568	3562.369	431.349	5020.173	570.619
636	0.660	0.0003	5	415.273	385.603	1397.914	244.193	2551.855	278.081	3566.929	463.096	5012.639	581.588
637	0.661	0.0003	5	406.245	425.939	1398.716	226.971	2561.703	288.939	3564.592	493.421	5011.313	594.766
638	0.662	0.0003	5	396.121	467.265	1398.634	208.629	2571.490	302.319	3553.222	517.932	5016.902	607.580
639	0.663	0.0003	5	385.037	507.284	1397.974	189.857	2580.325	317.324	3532.684	532.324	5029.943	617.969
640	0.664	0.0003	5	373.890	542.045	1396.988	171.120	2586.911	331.919	3504.961	533.623	5050.049	624.857
641	0.665	0.0003	5	364.549	566.585	1395.903	152.909	2589.783	343.353	3473.294	521.269	5075.750	628.284
642	0.666	0.0003	5	359.325	576.602	1394.904	135.813	2587.633	348.831	3440.855	497.205	5105.048	629.285
643	0.667	0.0003	5	359.726	570.255	1394.102	120.385	2579.557	346.088	3409.755	464.909	5136.229	629.547
644	0.668	0.0003	5	365.492	548.866	1393.557	106.945	2565.291	333.706	3380.805	428.224	5168.431	631.038
645	0.669	0.0003	5	374.847	516.141	1393.320	95.510	2545.574	311.429	3353.908	390.825	5201.937	635.915
646	0.670	0.0003	5	385.577	476.804	1393.485	85.893	2522.464	280.789	3328.610	356.339	5238.610	646.892
647	0.671	0.0003	5	395.883	435.792	1394.200	77.923	2499.037	245.559	3304.555	328.414	5283.201	667.731
648	0.672	0.0003	5	404.673	397.994	1395.655	71.654	2478.339	210.901	3281.791	310.450	5348.859	703.216
649	0.673	0.0003	4	411.513	367.806	1398.061	67.390	2462.317	181.348	3260.952	305.297	--undefined--	--undefined--
650	0.674	0.0003	4	416.443	348.281	1401.630	65.509	2451.479	159.252	3243.284	315.123	--undefined--	--undefined--
651	0.675	0.0003	4	419.737	340.379	1406.558	66.226	2445.232	144.649	3230.404	341.022	--undefined--	--undefined--
652	0.676	0.0003	4	421.721	342.694	1413.002	69.420	2442.413	136.091	3223.691	381.736	--undefined--	--undefined--
653	0.677	0.0003	4	422.695	351.676	1421.022	74.550	2441.644	131.644	3223.252	431.615	--undefined--	--undefined--
654	0.678	0.0003	4	422.913	362.323	1430.495	80.682	2441.551	129.702	3226.831	479.734	--undefined--	--undefined--
655	0.679	0.0003	4	422.573	369.412	1441.031	86.660	2440.986	129.305	3229.829	513.094	--undefined--	--undefined--
656	0.680	0.0003	4	421.771	369.203	1451.990	91.437	2439.242	129.850	3227.669	523.443	--undefined--	--undefined--
657	0.681	0.0003	4	420.491	360.787	1462.600	94.396	2436.122	130.632	3218.957	511.626	--undefined--	--undefined--
658	0.682	0.0003	4	418.670	346.048	1472.115	95.500	2431.854	130.842	3205.874	485.675	--undefined--	--undefined--
659	0.683	0.0003	4	416.293	328.385	1479.944	95.189	2426.925	129.987	3191.844	455.813	--undefined--	--undefined--
660	0.684	0.0003	4	413.452	311.306	1485.735	94.173	2421.865	128.184	3179.537	430.722	--undefined--	--undefined--
661	0.685	0.0003	4	410.314	297.642	1489.417	93.228	2417.089	126.065	3170.480	416.390	--undefined--	--undefined--
662	0.686	0.0003	4	407.064	289.418	1491.200	93.075	2412.858	124.423	3165.572	416.626	--undefined--	--undefined--
663	0.687	0.0003	4	403.808	288.088	1491.512	94.357	2409.313	123.884	3165.666	433.902	--undefined--	--undefined--
664	0.688	0.0003	4	400.492	294.763	1490.901	97.653	2406.500	124.735	3171.898	469.803	--undefined--	--undefined--
665	0.689	0.0003	4	396.807	310.244	1489.909	103.504	2404.299	126.954	3185.633	524.862	--undefined--	--undefined--
666	0.690	0.0003	4	392.085	334.875	1488.969	112.459	2402.354	130.399	3208.104	597.662	--undefined--	--undefined--
667	0.691	0.0003	4	385.244	368.318	1488.357	125.174	2400.087	135.079	3239.823	683.333	--undefined--	--undefined--
668	0.692	0.0003	4	374.839	409.068	1488.207	142.550	2396.839	141.369	3279.759	772.157	--undefined--	--undefined--
669	0.693	0.0003	4	359.493	453.546	1488.565	165.875	2392.100	149.986	3324.434	849.798	--undefined--	--undefined--
670	0.694	0.0003	4	338.969	495.331	1489.558	197.084	2385.820	161.696	3368.153	901.307	--undefined--	--undefined--
671	0.695	0.0003	4	315.540	526.668	1491.801	239.562	2379.002	177.009	3406.701	918.883	--undefined--	--undefined--
672	0.696	0.0003	4	293.631	544.454	1497.337	300.369	2374.762	196.493	3443.420	907.743	--undefined--	--undefined--
673	0.697	0.0003	4	276.566	556.633	1511.902	394.730	2379.372	222.526	3489.699	882.324	--undefined--	--undefined--
674	0.698	0.0003	4	264.762	578.504	1550.773	550.035	2401.161	261.835	3554.089	850.663	--undefined--	--undefined--
675	0.699	0.0003	4	259.164	615.471	1652.191	777.591	2446.492	325.214	3627.159	808.002	--undefined--	--undefined--
676	0.700	0.0003	4	261.214	644.986	1831.305	899.725	2520.025	408.013	3684.939	759.221	--undefined--	--undefined--
677	0.701	0.0003	4	254.242	673.007	1906.900	810.108	2611.195	444.742	3711.848	722.467	--undefined--	--undefined--
678	0.702	0.0003	4	192.265	799.233	1870.676	724.000	2684.713	429.581	3719.268	711.420	--undefined--	--undefined--
679	0.703	0.0004	3	1811.463	676.699	2741.268	416.733	3729.327	731.694	--undefined--	--undefined--	--undefined--	--undefined--
680	0.704	0.0004	4	920.082	3322.865	1749.594	663.407	2789.268	417.277	3751.368	780.193	--undefined--	--undefined--
681	0.705	0.0004	4	1590.144	2726.944	1682.318	651.927	2831.355	423.519	3785.287	842.008	--undefined--	--undefined--
682	0.706	0.0004	4	1623.641	607.310	1909.708	2274.069	2867.312	426.738	3825.156	896.161	--undefined--	--undefined--
683	0.707	0.0004	4	1588.960	553.047	2063.931	1979.226	2895.888	423.453	3860.784	930.853	--undefined--	--undefined--
684	0.708	0.0004	4	1570.280	513.146	2139.007	1786.268	2916.817	416.013	3884.839	950.917	--undefined--	--undefined--
685	0.709	0.0004	4	1559.020	487.316	2181.925	1655.521	2931.417	408.690	3896.622	967.848	--undefined--	--undefined--
686	0.710	0.0004	4	1551.423	470.530	2214.946	1564.309	2941.577	404.718	3898.874	990.768	--undefined--	--undefined--
687	0.711	0.0004	4	1546.186	459.199	2247.412	1502.084	2948.834	405.816	3894.345	1024.755	--undefined--	--undefined--
688	0.712	0.0004	4	1542.888	451.493	2281.977	1466.309	2953.995	412.484	3884.599	1070.955	--undefined--	--undefined--
689	0.713	0.0004	4	1541.187	446.350	2317.524	1461.224	2956.892	424.022	3870.035	1125.375	--undefined--	--undefined--
690	0.714	0.0004	4	1540.463	441.965	2349.848	1500.236	2955.985	437.817	3850.438	1175.560	--undefined--	--undefined--
691	0.715	0.0004	4	1539.918	433.964	2369.089	1611.259	2948.345	447.288	3826.878	1195.918	--undefined--	--undefined--
692	0.716	0.0004	4	1539.480	414.789	2350.104	1834.460	2932.205	439.877	3807.250	1150.119	--undefined--	--undefined--
693	0.717	0.0004	4	1540.785	378.020	2244.664	2169.240	2912.124	406.371	3810.087	1022.357	--undefined--	--undefined--
694	0.718	0.0004	4	1545.101	327.183	2027.405	2481.096	2894.215	358.155	3844.418	848.775	--undefined--	--undefined--
695	0.719	0.0004	4	1550.910	277.491	1770.558	2575.355	2876.138	314.733	3893.925	676.214	--undefined--	--undefined--
696	0.720	0.0004	4	1556.912	242.616	1584.706	2451.505	2851.416	283.970	3938.260	532.591	--undefined--	--undefined--
697	0.721	0.0004	4	1487.126	2283.241	1563.238	223.868	2818.964	262.785	3968.951	429.803	--undefined--	--undefined--
698	0.722	0.0004	4	1434.999	2186.881	1569.928	215.274	2784.887	246.617	3986.545	366.301	--undefined--	--undefined--
699	0.723	0.0004	4	1391.981	2196.070	1576.661	210.957	2755.509	234.107	3993.997	334.056	--undefined--	--undefined--
700	0.724	0.0004	4	1331.490	2319.365	1583.002	207.109	2732.715	224.769	3994.340	323.972	--undefined--	--undefined--
701	0.725	0.0004	4	1221.692	2567.966	1588.429	201.645	2715.461	217.215	3990.227	328.084	--undefined--	--undefined--
702	0.726	0.0004	4	994.669	2970.616	1592.314	193.720	2702.266	209.912	3983.768	340.083	--undefined--	--undefined--
703	0.727	0.0004	4	194.469	3601.359	1594.116	183.400	2692.157	202.122	3976.630	355.122	--undefined--	--undefined--
704	0.728	0.0004	3	1593.649	171.454	2684.649	194.067	3970.230	369.644	--undefined--	--undefined--	--undefined--	--undefined--
705	0.729	0.0004	4	125.046	1000.173	1591.201	159.172	2679.524	186.663	3965.774	381.619	--undefined--	--undefined--
706	0.730	0.0004	4	249.007	857.366	1587.412	148.114	2676.711	181.178	3964.009	390.976	--undefined--	--undefined--
707	0.731	0.0004	4	296.155	767.032	1583.028	139.830	2676.258	178.974	3964.903	399.660	--undefined--	--undefined--
708	0.732	0.0004	4	319.151	714.914	1578.669	135.618	2678.329	181.299	3967.609	410.941	--undefined--	--undefined--
709	0.733	0.0004	4	328.953	694.880	1574.704	136.425	2683.142	189.074	3970.906	428.148	--undefined--	--undefined--
710	0.734	0.0004	4	328.872	703.559	1571.248	142.859	2690.826	202.650	3973.795	453.383	--undefined--	--undefined--
711	0.735	0.0004	4	318.975	738.183	1568.226	155.250	2701.254	221.538	3975.778	486.596	--undefined--	--undefined--
712	0.736	0.0004	4	297.208	795.086	1565.510	173.693	2713.953	244.211	3976.590	525.125	--undefined--	--undefined--
713	0.737	0.0004	4	260.123	867.260	1563.125	198.008	2728.080	268.020	3975.543	563.877	--undefined--	--undefined--
714	0.738	0.0004	4	205.887	939.417	1561.522	227.574	2742.407	289.438	3971.022	596.701	--undefined--	--undefined--
715	0.739	0.0004	4	148.233	981.790	1561.825	261.009	2755.332	304.934	3960.897	619.037	--undefined--	--undefined--
716	0.740	0.0004	4	144.605	956.080	1565.646	295.797	2765.222	312.527	3943.917	629.901	--undefined--	--undefined--
717	0.741	0.0004	4	204.234	850.741	1573.974	328.666	2771.241	313.020	3920.843	631.132	--undefined--	--undefined--
718	0.742	0.0004	4	260.544	703.015	1585.975	357.924	2773.901	309.639	3894.376	624.840	--undefined--	--undefined--
719	0.743	0.0004	4	292.352	561.224	1599.739	385.692	2774.541	306.343	3868.335	609.671	--undefined--	--undefined--
720	0.744	0.0004	4	304.554	451.644	1614.383	415.576	2773.999	306.095	3847.581	573.643	--undefined--	--undefined--
721	0.745	0.0004	4	304.941	382.542	1630.997	445.991	2771.074	310.166	3838.080	492.034	--undefined--	--undefined--
722	0.746	0.0004	4	297.752	357.605	1649.723	462.800	2761.211	320.416	3839.732	368.387	--undefined--	--undefined--
723	0.747	0.0005	4	281.282	388.007	1662.086	448.900	2737.795	338.101	3843.510	262.520	--undefined--	--undefined--
724	0.748	0.0005	4	237.154	507.815	1658.111	418.166	2702.689	355.872	3846.044	204.663	--undefined--	--undefined--
725	0.749	0.0005	3	1637.483	396.307	2667.294	373.747	3849.077	181.831	--undefined--	--undefined--	--undefined--	--undefined--
726	0.750	0.0005	3	1604.577	374.748	2634.971	396.819	3853.291	178.522	--undefined--	--undefined--	--undefined--	--undefined--
727	0.751	0.0005	3	1575.646	333.878	2603.933	416.497	3857.976	185.025	--undefined--	--undefined--	--undefined--	--undefined--
728	0.752	0.0005	3	1564.524	290.242	2577.324	420.774	3862.171	195.841	--undefined--	--undefined--	--undefined--	--undefined--
729	0.753	0.0005	3	1567.208	259.731	2558.516	412.003	3865.841	208.749	--undefined--	--undefined--	--undefined--	--undefined--
730	0.754	0.0005	4	1577.450	240.324	2544.887	399.753	3870.205	223.801	4874.827	2122.551	--undefined--	--undefined--
731	0.755	0.0005	4	1592.055	227.163	2531.555	390.205	3877.226	242.295	4602.319	1646.940	--undefined--	--undefined--
732	0.756	0.0005	4	1609.912	217.869	2514.844	385.061	3889.041	265.832	4473.467	1334.264	--undefined--	--undefined--
733	0.757	0.0005	4	1631.210	211.435	2492.959	381.979	3907.625	294.966	4389.983	1108.765	--undefined--	--undefined--
734	0.758	0.0005	5	125.106	850.076	1656.575	206.098	2466.496	374.880	3934.616	327.190	4328.859	939.685
735	0.759	0.0005	5	242.387	693.666	1686.008	198.439	2439.063	356.507	3971.204	354.850	4282.871	818.950
736	0.760	0.0005	5	298.283	550.901	1718.215	184.875	2416.195	323.965	4017.501	363.836	4247.973	753.589
737	0.761	0.0005	5	330.594	424.358	1750.998	164.713	2402.074	282.056	4066.868	335.706	4224.727	759.246
738	0.762	0.0005	5	349.549	320.323	1782.211	141.167	2397.159	239.505	4101.966	279.899	4222.967	824.851
739	0.763	0.0005	5	361.242	241.483	1810.278	118.845	2398.935	203.007	4121.422	230.585	4237.737	914.523
740	0.764	0.0005	5	369.491	185.498	1834.417	100.852	2404.155	175.319	4132.100	195.994	4258.771	1018.843
741	0.765	0.0005	5	376.136	147.286	1854.743	88.011	2410.432	156.395	4136.667	173.376	4283.203	1139.135
742	0.766	0.0005	5	381.731	121.462	1872.001	79.666	2416.570	144.835	4135.286	159.326	4313.279	1274.365
743	0.767	0.0005	5	386.265	103.671	1887.093	74.664	2422.203	138.863	4127.258	150.539	4354.256	1420.605
744	0.768	0.0005	5	389.628	90.954	1900.776	71.934	2427.415	136.862	4112.393	143.076	4413.758	1578.902
745	0.769	0.0005	5	391.793	81.582	1913.556	70.680	2432.539	137.543	4092.355	133.100	4502.576	1762.824
746	0.770	0.0005	5	392.836	74.629	1925.676	70.355	2437.962	139.905	4070.652	119.382	4639.229	1994.526
747	0.771	0.0005	5	392.896	69.551	1937.105	70.600	2443.872	143.143	4050.705	104.068	4871.099	2293.746
748	0.772	0.0005	4	392.135	65.950	1947.588	71.220	2450.114	146.616	4034.214	90.241	--undefined--	--undefined--
749	0.773	0.0005	4	390.731	63.501	1956.778	72.178	2456.248	149.850	4021.257	79.736	--undefined--	--undefined--
750	0.774	0.0005	4	388.873	61.936	1964.387	73.575	2461.745	152.506	4011.186	72.960	--undefined--	--undefined--
751	0.775	0.0005	4	386.754	61.023	1970.293	75.580	2466.165	154.329	4003.344	69.618	--undefined--	--undefined--
752	0.776	0.0005	4	384.558	60.549	1974.579	78.400	2469.252	155.185	3997.446	69.296	--undefined--	--undefined--
753	0.777	0.0005	4	382.440	60.319	1977.512	82.264	2470.963	155.176	3993.754	71.731	--undefined--	--undefined--
754	0.778	0.0005	4	380.519	60.182	1979.518	87.429	2471.458	154.699	3993.164	76.820	--undefined--	--undefined--
755	0.779	0.0005	4	378.885	60.070	1981.176	94.113	2471.063	154.310	3997.142	84.307	--undefined--	--undefined--
756	0.780	0.0005	4	377.606	60.042	1983.247	102.334	2470.214	154.383	4007.194	93.068	--undefined--	--undefined--
757	0.781	0.0005	4	376.737	60.249	1986.663	111.685	2469.341	154.868	4023.481	100.481	--undefined--	--undefined--
758	0.782	0.0005	4	376.288	60.793	1992.348	121.318	2468.661	155.508	4043.355	103.488	--undefined--	--undefined--
759	0.783	0.0005	4	376.200	61.598	2000.913	130.257	2468.125	156.345	4062.069	101.455	--undefined--	--undefined--
760	0.784	0.0005	4	376.343	62.467	2012.456	137.715	2467.691	157.735	4075.832	96.945	--undefined--	--undefined--
761	0.785	0.0005	4	376.557	63.249	2026.537	143.144	2467.537	159.798	4083.538	93.201	--undefined--	--undefined--
762	0.786	0.0005	4	376.678	63.916	2042.229	146.339	2467.892	162.099	4085.907	92.224	--undefined--	--undefined--
763	0.787	0.0005	4	376.555	64.534	2058.373	147.683	2468.676	163.916	4084.107	94.793	--undefined--	--undefined--
764	0.788	0.0005	4	376.047	65.208	2073.989	148.110	2469.417	164.686	4079.154	100.977	--undefined--	--undefined--
765	0.789	0.0005	4	375.038	66.046	2088.565	148.646	2469.522	164.200	4071.979	110.294	--undefined--	--undefined--
766	0.790	0.0005	4	373.440	67.134	2102.058	149.955	2468.655	162.520	4063.728	121.633	--undefined--	--undefined--
767	0.791	0.0005	4	371.192	68.502	2114.705	152.231	2466.900	159.873	4055.970	133.366	--undefined--	--undefined--
768	0.792	0.0005	4	368.272	70.100	2126.846	155.406	2464.624	156.625	4050.502	143.878	--undefined--	--undefined--
769	0.793	0.0005	4	364.693	71.804	2138.829	159.409	2462.232	153.277	4048.797	152.210	--undefined--	--undefined--
770	0.794	0.0005	4	360.520	73.457	2151.004	164.295	2459.959	150.426	4051.499	158.230	--undefined--	--undefined--
771	0.795	0.0005	4	355.870	74.917	2163.770	170.236	2457.815	148.730	4058.376	162.239	--undefined--	--undefined--
772	0.796	0.0005	4	350.908	76.090	2177.610	177.387	2455.599	148.911	4068.621	164.422	--undefined--	--undefined--
773	0.797	0.0004	4	345.828	76.927	2193.049	185.758	2452.930	151.732	4081.168	164.509	--undefined--	--undefined--
774	0.798	0.0004	4	340.827	77.390	2210.536	195.142	2449.224	157.926	4094.795	161.846	--undefined--	--undefined--
775	0.799	0.0004	4	336.075	77.420	2230.348	205.281	2443.583	168.057	4108.144	155.977	--undefined--	--undefined--
776	0.800	0.0004	4	331.699	76.931	2252.717	216.316	2434.539	182.214	4119.926	147.428	--undefined--	--undefined--
777	0.801	0.0003	4	327.769	75.868	2278.648	229.642	2419.381	199.236	4129.353	137.897	--undefined--	--undefined--
778	0.802	0.0003	4	324.320	74.283	2313.798	252.557	2390.785	211.716	4136.429	129.531	--undefined--	--undefined--
779	0.803	0.0003	4	321.372	72.356	2343.129	350.083	2362.819	153.483	4141.823	123.991	--undefined--	--undefined--
780	0.804	0.0003	4	318.948	70.338	2339.762	429.204	2362.614	115.015	4146.515	122.101	--undefined--	--undefined--
781	0.805	0.0003	5	317.082	68.458	2331.376	489.264	2364.082	93.641	4151.526	123.984	4916.558	2598.607
782	0.806	0.0003	5	315.827	66.865	2321.812	536.255	2365.810	80.639	4157.763	129.259	4690.493	2320.550
783	0.807	0.0004	5	315.257	65.628	2313.662	572.382	2367.571	72.859	4165.865	136.994	4545.172	2110.382
784	0.808	0.0004	5	315.469	64.760	2308.516	600.483	2369.308	68.583	4175.873	145.535	4437.056	1963.059
785	0.809	0.0004	5	316.576	64.232	2306.783	624.290	2371.035	66.644	4186.749	152.680	4350.856	1870.188
786	0.810	0.0004	5	318.683	63.969	2307.860	647.712	2372.839	66.160	4196.244	156.681	4282.065	1821.340
787	0.811	0.0004	5	321.871	63.856	2310.622	674.173	2374.865	66.457	4201.768	157.270	4231.176	1806.100
788	0.812	0.0004	5	326.164	63.783	2314.160	706.462	2377.245	67.071	4199.627	1818.808	4201.827	155.228
789	0.813	0.0004	5	331.508	63.686	2318.314	746.925	2380.029	67.737	4187.307	1861.498	4196.708	151.203
790	0.814	0.0004	5	337.751	63.545	2323.534	797.523	2383.177	68.327	4188.013	145.554	4192.389	1940.211
791	0.815	0.0006	5	344.651	63.354	2330.172	859.549	2386.622	68.786	4177.633	138.994	4212.554	2057.226
792	0.816	0.0006	5	351.903	63.087	2337.624	933.295	2390.332	69.073	4166.872	132.827	4245.293	2203.543
793	0.817	0.0006	5	359.173	62.698	2343.669	1017.866	2394.346	69.152	4156.116	128.526	4285.590	2353.088
794	0.818	0.0006	5	366.149	62.139	2344.519	1110.697	2398.751	69.011	4145.020	127.183	4322.772	2463.731
795	0.819	0.0006	5	372.572	61.397	2336.299	1205.916	2403.625	68.714	4132.949	129.137	4343.963	2496.362
796	0.820	0.0006	5	378.265	60.522	2317.888	1293.125	2408.974	68.427	4119.472	133.802	4346.090	2446.456
797	0.821	0.0006	5	383.141	59.627	2292.874	1361.364	2414.705	68.356	4104.752	139.821	4338.334	2350.447
798	0.822	0.0008	5	387.184	58.852	2267.507	1407.050	2420.643	68.630	4089.715	145.740	4329.137	2253.222
799	0.823	0.0008	5	390.421	58.319	2245.927	1436.176	2426.589	69.210	4075.877	150.965	4318.398	2176.049
800	0.824	0.0008	5	392.892	58.091	2227.599	1458.665	2432.378	69.883	4065.003	156.321	4299.774	2109.612
801	0.825	0.0008	5	394.624	58.153	2208.265	1481.914	2437.908	70.350	4058.892	163.777	4265.814	2024.463
802	0.826	0.001	5	395.629	58.435	2183.146	1507.349	2443.109	70.411	4059.367	175.494	4214.347	1893.772
803	0.827	0.001	5	395.919	58.877	2151.210	1530.723	2447.893	70.159	4068.234	192.294	4151.681	1719.686
804	0.828	0.001	5	395.524	59.466	2117.129	1546.729	2452.132	70.024	4086.291	1535.954	4086.859	211.500
805	0.829	0.001	5	394.485	60.215	2088.043	1553.285	2455.694	70.575	4022.493	1382.563	4114.702	225.309
806	0.830	0.001	5	392.847	61.103	2068.997	1550.365	2458.475	72.270	3963.589	1281.704	4147.030	225.281
807	0.831	0.001	5	390.647	62.070	2061.596	1537.338	2460.405	75.324	3913.776	1228.775	4177.311	212.656
808	0.832	0.001	5	387.931	63.037	2064.917	1512.740	2461.431	79.708	3874.643	1203.689	4203.048	195.737
809	0.833	0.001	5	384.754	63.932	2076.689	1475.443	2461.507	85.201	3846.122	1187.203	4225.101	180.345
810	0.834	0.001	5	381.198	64.708	2094.198	1425.760	2460.595	91.467	3828.716	1166.223	4244.594	168.471
811	0.835	0.001	5	377.377	65.354	2114.929	1366.079	2458.682	98.152	3823.257	1133.612	4261.788	160.238
812	0.836	0.001	5	373.437	65.900	2136.936	1300.865	2455.790	104.948	3829.560	1087.016	4276.292	155.236
813	0.837	0.002	5	369.558	66.425	2158.987	1235.942	2451.989	111.609	3845.474	1027.820	4287.696	152.994
814	0.838	0.002	5	365.944	67.044	2180.445	1177.074	2447.417	117.907	3867.135	960.313	4296.044	152.974
815	0.839	0.002	5	362.814	67.874	2200.879	1128.144	2442.372	123.578	3890.304	890.321	4301.859	154.511
816	0.840	0.002	5	360.389	68.989	2219.641	1089.644	2437.459	128.394	3911.734	823.224	4305.896	156.886
817	0.841	0.002	5	358.875	70.385	2235.728	1058.071	2433.660	132.395	3929.660	762.373	4308.915	159.484
818	0.842	0.002	5	358.437	71.973	2248.010	1026.815	2432.190	136.097	3943.486	708.580	4311.598	161.873
819	0.843	0.002	5	359.179	73.603	2255.590	988.984	2434.162	140.304	3953.183	660.575	4314.550	163.727
820	0.844	0.002	5	361.119	75.129	2258.009	941.145	2440.233	145.505	3958.874	616.044	4318.268	164.650
821	0.845	0.002	5	364.168	76.463	2255.266	885.171	2450.384	151.313	3960.843	572.923	4322.993	164.080
822	0.846	0.002	5	368.124	77.588	2247.883	826.550	2463.821	156.463	3959.846	530.436	4328.544	161.491
823	0.847	0.003	5	372.683	78.525	2236.955	770.762	2479.046	159.623	3957.227	489.273	4334.318	156.838
824	0.848	0.003	5	377.465	79.297	2223.866	720.661	2494.284	160.378	3954.562	450.842	4339.583	150.818
825	0.849	0.003	5	382.060	79.912	2209.776	676.355	2508.077	159.396	3953.100	416.315	4343.840	144.632
826	0.850	0.003	5	386.095	80.359	2195.444	636.678	2519.565	157.779	3953.445	386.137	4346.971	139.480
827	0.851	0.003	5	389.295	80.628	2181.422	600.532	2528.381	156.490	3955.558	360.091	4349.150	136.190
828	0.852	0.003	5	391.527	80.728	2168.318	567.346	2534.462	156.191	3958.933	337.672	4350.673	135.102
829	0.853	0.003	5	392.803	80.702	2156.893	536.891	2537.936	157.292	3962.809	318.531	4351.801	136.111
830	0.854	0.003	5	393.236	80.631	2148.034	508.896	2539.076	160.026	3966.376	302.791	4352.675	138.760
831	0.855	0.003	5	392.989	80.624	2142.649	482.752	2538.305	164.481	3968.934	291.137	4353.266	142.364
832	0.856	0.003	5	392.239	80.809	2141.503	457.460	2536.198	170.618	3969.967	284.688	4353.390	146.116
833	0.857	0.003	5	391.170	81.329	2144.968	431.844	2533.503	178.291	3969.106	284.751	4352.787	149.181
834	0.858	0.003	5	389.985	82.355	2152.713	405.011	2531.077	187.248	3966.019	292.539	4351.265	150.727
835	0.859	0.003	5	388.940	84.100	2163.514	376.965	2529.712	197.100	3960.293	308.796	4348.874	149.967
836	0.860	0.003	5	388.367	86.805	2175.429	349.056	2529.832	207.238	3951.406	333.240	4346.065	146.333
837	0.861	0.003	5	388.681	90.692	2186.352	323.782	2531.230	216.823	3938.915	363.839	4343.687	139.813
838	0.862	0.003	5	390.355	95.865	2194.596	303.809	2533.125	224.929	3922.938	396.363	4342.740	131.224
839	0.863	0.003	5	393.843	102.194	2199.074	290.796	2534.616	230.668	3904.677	424.973	4343.983	121.999
840	0.864	0.003	5	399.471	109.252	2199.111	284.707	2535.282	233.159	3886.449	444.094	4347.671	113.527
841	0.865	0.003	5	407.306	116.379	2194.239	283.686	2535.543	231.640	3870.925	450.605	4353.556	106.611
842	0.866	0.003	5	417.079	122.885	2184.324	284.342	2536.501	225.951	3860.059	444.843	4361.026	101.428
843	0.867	0.003	5	428.200	128.301	2169.913	282.669	2539.320	216.902	3854.485	429.809	4369.291	97.837
844	0.868	0.003	5	439.880	132.551	2152.411	275.637	2544.563	206.020	3853.648	409.436	4377.568	95.693
845	0.869	0.003	5	451.312	135.959	2133.704	262.493	2551.973	194.924	3856.317	387.196	4385.241	94.983
846	0.870	0.003	5	461.815	139.105	2115.530	244.731	2560.706	184.971	3861.078	365.596	4391.928	95.795
847	0.871	0.003	5	470.896	142.600	2099.068	224.941	2569.693	177.247	3866.671	346.339	4397.442	98.235
848	0.872	0.003	5	478.248	146.892	2084.923	205.586	2577.917	172.658	3872.163	330.681	4401.701	102.385
849	0.873	0.003	5	483.716	152.140	2073.324	188.394	2584.517	172.018	3876.987	319.651	4404.624	108.289
850	0.874	0.003	5	487.295	158.179	2064.301	174.374	2588.768	176.145	3880.862	314.108	4406.066	115.945
851	0.875	0.003	5	489.157	164.569	2057.757	164.106	2590.001	185.962	3883.661	314.700	4405.803	125.280
852	0.876	0.003	5	489.692	170.722	2053.464	158.046	2587.501	202.587	3885.274	321.817	4403.570	136.091
853	0.877	0.003	5	489.508	176.116	2051.066	156.757	2580.409	227.338	3885.505	335.509	4399.172	147.972
854	0.878	0.003	5	489.334	180.532	2050.156	161.088	2567.617	261.560	3884.005	355.335	4392.636	160.246
855	0.879	0.003	5	489.848	184.189	2050.402	172.305	2547.714	306.052	3880.266	380.067	4384.413	171.984
856	0.880	0.003	5	491.529	187.638	2051.707	192.177	2519.049	359.806	3873.728	407.312	4375.526	182.202
857	0.881	0.003	5	494.589	191.426	2054.264	223.022	2480.145	417.945	3864.042	433.391	4367.531	190.296
858	0.882	0.003	5	498.998	195.698	2058.297	267.987	2430.675	469.450	3851.381	454.106	4362.139	196.419
859	0.883	0.003	5	504.549	199.994	2062.887	332.632	2373.296	495.725	3836.429	466.322	4360.641	201.367
860	0.884	0.003	5	510.919	203.386	2060.793	427.645	2318.710	471.646	3819.938	469.053	4363.551	206.015
861	0.885	0.003	5	517.725	204.838	2029.205	536.836	2293.722	402.917	3802.372	463.096	4370.608	210.897
862	0.886	0.003	5	524.576	203.570	1973.051	596.293	2296.580	349.999	3784.046	450.099	4380.979	216.279
863	0.887	0.003	5	531.137	199.271	1914.668	605.167	2306.781	316.958	3765.481	432.090	4393.436	222.559
864	0.888	0.003	5	537.160	192.177	1861.625	581.160	2317.479	293.792	3747.605	411.335	4406.463	230.652
865	0.889	0.003	5	542.509	183.023	1816.288	538.007	2326.372	276.465	3731.755	390.113	4418.334	242.176
866	0.890	0.003	5	547.149	172.874	1779.209	486.103	2332.674	264.188	3719.491	370.408	4427.173	259.450
867	0.891	0.003	5	551.120	162.862	1750.076	432.987	2336.379	257.518	3712.175	353.712	4431.073	285.291
868	0.892	0.003	5	554.514	153.965	1728.140	383.615	2337.859	257.433	3710.423	341.009	4428.340	322.628
869	0.893	0.003	5	557.470	146.879	1712.436	340.731	2337.616	264.924	3713.810	332.937	4417.815	374.020
870	0.894	0.003	5	560.166	142.017	1701.891	305.329	2336.250	280.846	3721.214	329.908	4399.190	441.340
871	0.895	0.003	5	562.812	139.561	1695.380	277.081	2334.562	305.819	3731.590	331.876	4373.263	525.971
872	0.896	0.003	5	565.622	139.485	1691.727	254.688	2333.651	339.986	3744.477	337.614	4342.171	629.590
873	0.897	0.002	5	568.779	141.543	1689.696	236.237	2334.875	382.564	3759.607	343.978	4309.706	754.963
874	0.898	0.002	5	572.401	145.251	1687.980	219.654	2339.579	431.214	3775.587	346.737	4281.669	904.665
875	0.899	0.002	5	576.514	149.875	1685.291	203.239	2348.572	481.537	3789.234	344.762	4265.128	1075.315
876	0.900	0.002	5	581.041	154.480	1680.622	186.063	2361.522	527.449	3797.824	343.244	4264.807	1252.010
877	0.901	0.002	5	585.826	158.065	1673.564	167.980	2376.734	562.984	3801.246	349.502	4279.834	1411.539
878	0.902	0.002	5	590.687	159.782	1664.448	149.336	2391.806	584.785	3800.730	368.594	4304.466	1530.215
879	0.903	0.002	5	595.473	159.180	1654.180	130.720	2404.804	593.414	3797.194	403.601	4330.901	1591.501
880	0.904	0.002	5	600.094	156.329	1643.868	112.855	2414.895	592.629	3790.622	456.728	4352.845	1591.391
881	0.905	0.002	5	604.492	151.781	1634.456	96.508	2422.030	587.627	3779.738	528.818	4368.368	1537.737
882	0.906	0.002	5	608.595	146.357	1626.514	82.308	2426.245	583.470	3761.883	616.085	4380.477	1446.665
883	0.907	0.002	5	612.303	140.907	1620.226	70.592	2427.276	584.124	3734.897	704.416	4394.566	1342.566
884	0.908	0.002	5	615.515	136.137	1615.501	61.389	2424.703	592.048	3702.203	771.156	4412.349	1255.391
885	0.909	0.002	5	618.169	132.563	1612.105	54.505	2418.516	608.334	3672.920	802.431	4429.666	1205.641
886	0.910	0.002	5	620.287	130.533	1609.753	49.649	2409.686	633.348	3653.503	802.953	4442.122	1196.118
887	0.911	0.002	5	621.976	130.231	1608.159	46.515	2400.176	667.370	3643.951	787.824	4448.336	1219.237
888	0.912	0.002	5	623.398	131.697	1607.044	44.840	2392.372	710.691	3641.222	771.930	4449.075	1267.009
889	0.913	0.002	5	624.747	134.922	1606.141	44.437	2388.558	763.351	3643.164	764.490	4446.113	1338.119
890	0.914	0.002	5	626.222	139.978	1605.196	45.227	2390.759	824.933	3649.929	768.126	4441.875	1441.579
891	0.915	0.002	5	628.003	147.140	1603.949	47.258	2400.844	894.235	3663.479	779.445	4440.189	1598.724
892	0.916	0.002	5	630.248	156.930	1602.100	50.722	2420.592	968.318	3685.549	789.278	4450.292	1846.216
893	0.917	0.002	5	633.072	170.094	1599.261	55.962	2451.158	1040.899	3713.719	786.297	4498.935	2238.228
894	0.918	0.002	5	636.524	187.505	1594.890	63.488	2491.177	1101.763	3740.600	769.884	4664.619	2844.791
895	0.919	0.002	4	640.501	210.002	1588.219	73.948	2534.375	1141.872	3761.429	754.526	--undefined--	--undefined--
896	0.920	0.002	4	644.618	238.169	1578.195	88.003	2571.757	1163.094	3777.358	755.525	--undefined--	--undefined--
897	0.921	0.002	4	648.035	272.070	1563.477	105.923	2598.433	1176.259	3791.555	781.661	--undefined--	--undefined--
898	0.922	0.002	4	649.312	310.874	1542.626	126.780	2615.180	1187.768	3806.738	836.505	--undefined--	--undefined--
899	0.923	0.002	4	646.486	352.341	1514.707	147.373	2625.090	1193.833	3824.572	919.138	--undefined--	--undefined--
900	0.924	0.002	4	637.647	392.354	1480.486	162.088	2631.630	1184.220	3844.714	1021.800	--undefined--	--undefined--
901	0.925	0.002	4	622.089	425.476	1443.401	165.664	2638.234	1150.870	3862.332	1125.617	--undefined--	--undefined--
902	0.926	0.002	4	601.163	447.449	1408.393	157.647	2647.387	1096.592	3866.912	1200.605	--undefined--	--undefined--
903	0.927	0.002	4	577.590	457.921	1378.977	142.707	2659.784	1034.203	3850.779	1219.555	--undefined--	--undefined--
904	0.928	0.002	4	553.871	460.359	1356.015	126.402	2674.976	976.453	3819.415	1180.946	--undefined--	--undefined--
905	0.929	0.002	4	531.475	459.756	1338.749	112.256	2692.094	929.577	3783.693	1108.642	--undefined--	--undefined--
906	0.930	0.002	4	510.970	460.676	1326.046	101.746	2709.741	894.607	3749.941	1028.123	--undefined--	--undefined--
907	0.931	0.002	4	492.433	466.432	1316.968	95.259	2725.821	871.045	3720.172	954.184	--undefined--	--undefined--
908	0.932	0.002	4	475.786	478.895	1310.920	92.832	2737.817	858.717	3694.978	891.961	--undefined--	--undefined--
909	0.933	0.002	4	461.076	498.377	1307.644	94.529	2743.379	857.058	3675.627	840.641	--undefined--	--undefined--
910	0.934	0.002	4	448.795	523.255	1307.199	100.581	2741.059	863.023	3665.181	796.591	--undefined--	--undefined--
911	0.935	0.002	4	440.243	549.273	1309.947	111.394	2731.198	869.931	3668.075	755.737	--undefined--	--undefined--
912	0.936	0.002	4	437.582	568.695	1316.539	127.440	2716.589	869.757	3687.560	714.914	--undefined--	--undefined--
913	0.937	0.002	4	442.741	570.671	1327.744	149.039	2702.050	857.906	3722.509	672.719	--undefined--	--undefined--
914	0.938	0.001	4	454.998	546.583	1343.989	176.149	2692.813	834.922	3767.016	631.112	--undefined--	--undefined--
915	0.939	0.001	4	470.185	499.322	1364.469	208.560	2692.216	803.674	3813.826	595.516	--undefined--	--undefined--
916	0.940	0.001	4	483.604	443.718	1386.057	246.821	2699.116	767.919	3857.834	571.370	--undefined--	--undefined--
917	0.941	0.0008	4	492.467	395.664	1402.848	293.193	2707.547	733.609	3896.485	560.952	--undefined--	--undefined--
918	0.942	0.0007	4	495.585	363.234	1407.334	350.299	2710.511	707.075	3928.437	563.098	--undefined--	--undefined--
919	0.943	0.0007	4	492.589	345.274	1393.106	416.274	2704.381	690.102	3952.760	574.044	--undefined--	--undefined--
920	0.944	0.0006	4	484.335	335.252	1358.595	480.252	2690.229	678.907	3968.897	588.661	--undefined--	--undefined--
921	0.945	0.0006	4	473.557	327.193	1310.890	527.010	2672.527	668.194	3976.963	602.560	--undefined--	--undefined--
922	0.946	0.0006	4	463.849	319.519	1263.779	552.588	2656.642	654.721	3978.190	613.913	--undefined--	--undefined--
923	0.947	0.0005	4	457.766	313.899	1228.096	568.570	2646.608	636.650	3975.190	623.700	--undefined--	--undefined--
924	0.948	0.0005	4	456.152	311.894	1207.553	587.521	2644.303	611.802	3971.589	634.677	--undefined--	--undefined--
925	0.949	0.0005	4	458.509	313.303	1202.589	613.494	2649.411	578.910	3971.117	649.976	--undefined--	--undefined--
926	0.950	0.0004	4	463.249	316.391	1213.264	641.687	2659.729	540.107	3976.732	671.803	--undefined--	--undefined--
927	0.951	0.0004	4	467.619	318.875	1238.461	659.876	2672.188	500.815	3989.841	700.304	--undefined--	--undefined--
928	0.952	0.0004	4	467.744	318.787	1272.938	653.156	2683.924	467.478	4008.995	733.263	--undefined--	--undefined--
929	0.953	0.0002	4	459.448	313.788	1307.119	614.465	2692.660	446.362	4028.297	768.318	--undefined--	--undefined--
930	0.954	0.0002	4	440.425	298.807	1333.103	550.490	2696.612	443.820	4037.340	806.627	--undefined--	--undefined--
931	0.955	0.00008	4	413.502	267.527	1350.133	476.028	2693.962	465.700	4023.300	851.395	--undefined--	--undefined--
932	0.956	0.00007	4	386.389	221.878	1362.402	407.392	2682.380	514.425	3974.514	894.879	--undefined--	--undefined--
933	0.957	0.00004	4	365.336	174.236	1373.515	357.342	2660.899	585.450	3892.022	900.724	--undefined--	--undefined--
934	0.958	0.00002	4	351.593	135.597	1385.243	331.029	2634.633	672.157	3808.488	839.345	--undefined--	--undefined--
935	0.959	0.00002	4	343.530	108.923	1399.459	327.376	2614.576	780.469	3756.694	756.119	--undefined--	--undefined--
936	0.960	0.000008	4	339.104	92.180	1419.171	341.923	2613.282	930.866	3735.447	705.798	--undefined--	--undefined--
937	0.961	0.000007	4	336.823	82.282	1447.747	366.327	2650.488	1148.205	3735.209	711.287	--undefined--	--undefined--
938	0.962	0.00004	4	335.782	76.670	1485.656	386.478	2775.601	1428.224	3755.112	789.894	--undefined--	--undefined--
939	0.963	0.00004	4	335.440	73.544	1525.812	389.475	3052.289	1507.128	3823.370	964.536	--undefined--	--undefined--
940	0.964	0.0003	4	335.455	71.808	1557.245	379.363	3196.864	1170.598	3993.244	1066.432	--undefined--	--undefined--
941	0.965	0.0003	4	335.660	70.995	1575.233	371.555	3197.790	984.066	4129.869	990.965	--undefined--	--undefined--
942	0.966	0.0003	4	336.114	71.126	1580.904	375.722	3172.760	911.092	4209.653	914.634	--undefined--	--undefined--
943	0.967	0.0003	4	337.074	72.503	1576.585	393.434	3138.469	889.692	4256.340	877.369	--undefined--	--undefined--
944	0.968	0.0003	4	338.891	75.474	1564.434	422.317	3101.810	893.541	4279.123	881.734	--undefined--	--undefined--
945	0.969	0.0003	4	341.880	80.239	1546.461	459.514	3066.902	913.971	4278.268	924.360	--undefined--	--undefined--
946	0.970	0.0003	4	346.245	86.713	1524.587	503.174	3032.148	951.971	4246.899	995.398	--undefined--	--undefined--
947	0.971	0.0003	4	352.000	94.529	1501.668	551.947	2988.210	1006.162	4172.429	1057.397	--undefined--	--undefined--
948	0.972	0.0003	4	358.884	103.283	1485.356	603.467	2922.440	1054.792	4068.527	1018.809	--undefined--	--undefined--
949	0.973	0.0003	4	366.261	112.851	1493.507	647.354	2835.398	1058.532	4004.353	870.876	--undefined--	--undefined--
950	0.974	0.0003	4	372.853	123.401	1540.271	637.537	2750.526	977.546	4002.869	708.524	--undefined--	--undefined--
951	0.975	0.0003	4	377.748	141.190	1595.940	534.334	2706.685	803.049	4034.330	563.572	--undefined--	--undefined--
952	0.976	0.0003	4	382.484	190.098	1628.509	425.475	2700.029	639.668	4063.573	456.917	--undefined--	--undefined--
953	0.977	0.0003	4	386.508	310.642	1637.894	377.136	2705.260	556.213	4083.147	400.566	--undefined--	--undefined--
954	0.978	0.0003	4	371.861	568.325	1627.349	382.869	2711.790	542.517	4099.543	380.249	--undefined--	--undefined--
955	0.979	0.0003	4	169.978	1123.579	1591.727	416.304	2715.694	578.113	4117.676	375.656	--undefined--	--undefined--
956	0.980	0.0003	4	1454.151	5399.773	1531.925	415.064	2714.271	644.772	4136.401	370.824	--undefined--	--undefined--
957	0.981	0.0003	4	1488.970	356.801	2416.016	2994.873	2706.668	718.092	4150.953	360.604	--undefined--	--undefined--
958	0.982	0.0003	4	1471.217	304.892	2600.021	2343.320	2697.427	769.851	4159.307	347.891	--undefined--	--undefined--
959	0.983	0.0003	4	1463.205	272.210	2664.715	2094.308	2695.019	787.241	4162.944	335.488	--undefined--	--undefined--
960	0.984	0.0003	4	1458.363	251.590	2679.365	2008.072	2701.830	780.303	4164.075	324.164	--undefined--	--undefined--
961	0.985	0.0003	4	1454.665	237.979	2668.606	1991.129	2714.047	762.815	4164.173	313.898	--undefined--	--undefined--
962	0.986	0.0003	4	1451.364	229.316	2640.920	2005.876	2728.576	742.373	4163.943	304.600	--undefined--	--undefined--
963	0.987	0.0003	4	1448.086	224.990	2597.235	2037.278	2744.166	722.051	4163.691	296.246	--undefined--	--undefined--
964	0.988	0.0003	4	1444.613	224.877	2536.598	2075.909	2760.200	703.108	4163.600	288.876	--undefined--	--undefined--
965	0.989	0.0003	4	1440.814	228.955	2458.947	2110.566	2776.196	686.455	4163.839	282.590	--undefined--	--undefined--
966	0.990	0.0003	4	1436.586	237.182	2366.484	2126.782	2791.859	672.992	4164.574	277.544	--undefined--	--undefined--
967	0.991	0.0003	4	1431.811	249.456	2264.479	2109.606	2807.172	663.315	4165.945	273.949	--undefined--	--undefined--
968	0.992	0.0003	4	1426.329	265.632	2160.970	2049.468	2822.286	657.317	4168.035	272.063	--undefined--	--undefined--
969	0.993	0.0003	4	1419.961	285.601	2064.536	1948.142	2837.251	654.029	4170.844	272.206	--undefined--	--undefined--
970	0.994	0.0003	4	1412.635	309.552	1980.513	1820.591	2851.656	651.796	4174.276	274.778	--undefined--	--undefined--
971	0.995	0.0003	4	1404.716	338.852	1907.035	1691.550	2864.253	648.601	4178.088	280.340	--undefined--	--undefined--
972	0.996	0.0003	4	1397.888	378.580	1830.518	1590.598	2872.493	642.107	4181.753	289.797	--undefined--	--undefined--
973	0.997	0.0003	4	1398.566	442.461	1715.830	1548.288	2872.458	629.232	4184.247	304.688	--undefined--	--undefined--
974	0.998	0.0003	4	1434.042	536.386	1476.807	1600.727	2861.633	605.742	4184.223	326.975	--undefined--	--undefined--
975	0.999	0.0003	4	996.975	1825.628	1499.609	529.711	2845.008	568.330	4181.245	357.450	--undefined--	--undefined--
976	1.000	0.0003	4	441.980	1092.606	1513.836	500.196	2833.521	523.521	4176.805	391.694	--undefined--	--undefined--
977	1.001	0.0003	4	447.275	638.208	1493.398	523.186	2826.336	466.271	4168.221	440.188	--undefined--	--undefined--
978	1.002	0.0004	4	433.679	459.481	1422.083	595.515	2814.005	404.893	4141.831	523.163	--undefined--	--undefined--
979	1.003	0.0004	4	417.534	368.774	1308.773	607.508	2792.805	360.904	4081.978	639.075	--undefined--	--undefined--
980	1.004	0.0004	4	403.115	304.574	1217.881	521.192	2770.408	333.051	3984.542	747.954	--undefined--	--undefined--
981	1.005	0.0004	4	391.534	248.017	1163.567	400.290	2749.391	319.182	3848.809	794.567	--undefined--	--undefined--
982	1.006	0.0004	4	384.452	204.863	1138.747	296.022	2733.108	330.610	3722.115	754.934	--undefined--	--undefined--
983	1.007	0.0004	4	381.625	180.983	1130.899	231.479	2724.154	370.853	3635.885	694.259	--undefined--	--undefined--
984	1.008	0.0004	4	381.139	170.015	1129.956	193.975	2721.236	437.506	3572.708	636.846	--undefined--	--undefined--
985	1.009	0.0004	4	382.289	167.019	1132.798	169.802	2723.807	548.872	3512.680	571.360	--undefined--	--undefined--
986	1.010	0.0004	4	385.104	170.752	1138.657	156.960	2729.945	711.857	3456.238	492.236	--undefined--	--undefined--
987	1.011	0.0004	4	388.795	176.637	1145.460	152.517	2729.861	874.053	3416.633	412.243	--undefined--	--undefined--
988	1.012	0.0004	4	392.850	181.161	1152.268	151.723	2719.145	997.135	3393.276	341.940	--undefined--	--undefined--
989	1.013	0.0004	4	397.898	183.335	1160.164	152.489	2697.510	1080.004	3378.503	276.561	--undefined--	--undefined--
990	1.014	0.0004	4	403.945	181.671	1169.174	153.557	2669.450	1107.158	3369.763	221.519	--undefined--	--undefined--
991	1.015	0.0004	4	409.843	176.764	1177.668	153.128	2645.062	1087.367	3365.075	183.672	--undefined--	--undefined--
992	1.016	0.0004	4	415.377	170.087	1185.269	150.186	2626.155	1042.240	3362.205	157.573	--undefined--	--undefined--
993	1.017	0.0004	4	421.548	161.083	1192.938	143.024	2609.752	969.779	3359.898	136.159	--undefined--	--undefined--
994	1.018	0.0004	4	428.349	150.309	1199.795	130.413	2597.288	870.978	3357.975	119.776	--undefined--	--undefined--
995	1.019	0.0004	4	434.710	140.435	1204.384	115.810	2590.588	770.765	3356.529	109.917	--undefined--	--undefined--
996	1.020	0.0006	4	440.687	131.950	1207.248	101.757	2587.938	679.098	3355.384	104.532	--undefined--	--undefined--
997	1.021	0.0006	4	447.554	123.410	1209.301	87.141	2588.103	584.393	3354.301	102.104	--undefined--	--undefined--
998	1.022	0.0006	4	455.451	115.135	1210.692	73.470	2590.995	493.667	3353.451	103.475	--undefined--	--undefined--
999	1.023	0.0007	4	463.074	108.472	1211.531	63.451	2595.176	424.036	3353.203	108.619	--undefined--	--undefined--
1000	1.024	0.0007	4	470.300	103.094	1212.118	56.374	2599.481	371.753	3353.674	116.949	--undefined--	--undefined--
1001	1.025	0.0007	5	478.515	97.793	1212.699	50.587	2604.088	325.039	3355.302	130.835	5432.686	743.445
1002	1.026	0.0007	5	487.675	92.577	1213.379	46.353	2608.382	284.865	3358.921	152.716	5403.487	707.191
1003	1.027	0.0007	5	496.087	88.168	1214.147	44.149	2611.307	255.935	3364.438	179.880	5394.597	687.775
1004	1.028	0.0007	5	503.584	84.346	1215.046	43.425	2612.934	234.798	3371.552	210.672	5391.377	681.094
1005	1.029	0.0008	5	511.472	80.223	1216.355	43.997	2613.401	216.155	3381.531	250.133	5390.226	685.315
1006	1.030	0.0008	5	519.428	75.685	1218.329	46.312	2612.126	200.643	3393.884	296.165	5391.040	702.852
1007	1.031	0.0008	5	525.961	71.397	1220.862	50.140	2609.221	190.722	3404.668	335.835	5394.746	729.765
1008	1.032	0.0008	5	531.673	66.933	1224.413	55.827	2604.683	185.022	3412.961	368.027	5405.672	766.632
1009	1.033	0.0008	5	536.130	62.705	1228.905	62.799	2599.268	183.562	3417.358	388.304	5435.010	809.842
1010	1.034	0.0008	4	540.579	57.431	1236.546	73.535	2591.448	186.465	3418.809	401.224	--undefined--	--undefined--
1011	1.035	0.0008	4	543.864	52.460	1246.447	85.341	2583.448	193.570	3417.687	404.380	--undefined--	--undefined--
1012	1.036	0.0008	4	546.476	47.462	1259.771	97.992	2575.277	205.026	3415.822	402.297	--undefined--	--undefined--
1013	1.037	0.0008	4	548.347	43.033	1275.048	108.614	2568.384	219.384	3414.618	397.932	--undefined--	--undefined--
1014	1.038	0.0008	4	550.075	38.084	1296.743	117.548	2561.840	241.751	3414.545	390.830	--undefined--	--undefined--
1015	1.039	0.0008	4	551.277	34.092	1318.298	119.967	2558.460	267.184	3415.472	382.458	--undefined--	--undefined--
1016	1.040	0.0008	4	552.210	30.707	1339.369	116.343	2558.109	297.309	3415.915	372.076	--undefined--	--undefined--
1017	1.041	0.0008	4	552.875	28.124	1356.551	108.818	2560.200	329.077	3414.274	361.559	--undefined--	--undefined--
1018	1.042	0.0008	4	553.471	25.518	1373.520	96.825	2564.514	373.795	3408.225	349.353	--undefined--	--undefined--
1019	1.043	0.0008	4	553.828	23.485	1385.403	85.215	2568.338	422.038	3398.625	339.643	--undefined--	--undefined--
1020	1.044	0.0008	4	554.005	21.726	1394.256	74.548	2569.831	476.671	3386.170	331.147	--undefined--	--undefined--
1021	1.045	0.0008	4	554.005	20.344	1400.287	66.308	2567.364	529.854	3373.686	324.069	--undefined--	--undefined--
1022	1.046	0.0008	4	553.791	18.953	1405.768	58.532	2557.940	594.669	3358.807	317.097	--undefined--	--undefined--
1023	1.047	0.0008	4	553.376	17.938	1409.740	53.428	2542.801	653.005	3346.013	314.640	--undefined--	--undefined--
1024	1.048	0.0008	4	552.734	17.175	1413.210	50.167	2522.512	710.706	3333.669	319.888	--undefined--	--undefined--
1025	1.049	0.0008	4	551.944	16.699	1416.258	48.724	2501.315	764.353	3321.450	335.384	--undefined--	--undefined--
1026	1.050	0.0008	5	550.835	16.403	1419.810	48.747	2477.503	826.249	3303.685	368.873	5029.544	1790.715
1027	1.051	0.0008	5	549.326	16.317	1424.296	50.651	2454.718	896.848	3271.755	427.801	4680.314	1423.367
1028	1.052	0.0008	5	547.653	16.410	1429.372	54.112	2440.325	963.289	3221.148	493.570	4494.110	1094.437
1029	1.053	0.0008	5	545.878	16.601	1435.206	58.715	2434.036	1027.345	3153.215	540.210	4391.446	835.780
1030	1.054	0.0008	5	543.629	16.899	1443.543	65.396	2431.818	1109.155	3063.407	548.965	4328.193	620.140
1031	1.055	0.0008	5	540.800	17.284	1455.625	74.332	2424.780	1215.651	2970.681	501.060	4293.070	464.823
1032	1.056	0.0008	5	537.833	17.628	1469.661	83.113	2406.993	1312.903	2906.908	430.650	4276.259	377.801
1033	1.057	0.0008	5	534.805	17.887	1484.271	90.252	2386.232	1383.983	2866.623	369.997	4266.966	330.720
1034	1.058	0.0008	5	531.103	18.110	1500.721	95.698	2368.019	1436.750	2835.191	318.186	4259.632	303.912
1035	1.059	0.0008	5	526.644	18.364	1516.598	98.072	2360.987	1465.012	2809.576	280.325	4252.644	296.797
1036	1.060	0.0008	5	522.220	18.735	1527.676	97.703	2367.575	1470.016	2789.895	259.729	4245.768	306.222
1037	1.061	0.0008	5	517.970	19.276	1534.696	96.317	2382.398	1466.321	2772.911	249.557	4238.321	325.569
1038	1.062	0.0008	5	513.094	20.146	1539.722	94.563	2405.030	1465.209	2753.636	244.154	4228.205	355.766
1039	1.063	0.0008	5	507.585	21.418	1543.060	92.996	2432.568	1480.212	2731.035	240.632	4214.610	393.877
1040	1.064	0.0008	5	502.401	22.835	1544.986	92.113	2455.369	1515.294	2709.310	235.955	4200.351	426.274
1041	1.065	0.0008	5	497.613	24.275	1546.231	91.829	2469.781	1564.234	2689.889	229.171	4187.177	447.245
1042	1.066	0.0008	5	492.307	25.965	1547.303	92.139	2475.393	1630.640	2670.202	219.709	4174.550	456.394
1043	1.067	0.0008	5	486.537	27.889	1548.295	93.346	2469.172	1708.937	2651.562	209.441	4165.557	449.947
1044	1.068	0.0008	5	481.332	29.747	1549.161	95.437	2456.430	1782.909	2637.116	202.213	4163.065	434.778
1045	1.069	0.0008	5	476.715	31.608	1550.012	98.337	2444.767	1858.214	2625.945	198.435	4165.519	420.431
1046	1.070	0.0008	5	471.781	34.048	1551.135	102.812	2438.289	1967.595	2615.634	197.519	4172.395	411.821
1047	1.071	0.0008	5	466.514	37.565	1552.704	109.388	2445.250	2153.526	2606.958	199.673	4182.973	419.627
1048	1.072	0.0008	5	461.618	42.046	1554.459	116.977	2469.525	2432.703	2602.264	203.304	4193.145	450.482
1049	1.073	0.0008	5	456.860	47.598	1556.144	125.003	2512.500	2840.764	2602.034	206.847	4199.994	505.711
1050	1.074	0.0008	5	450.916	55.793	1557.663	134.608	2602.739	3628.850	2607.834	209.606	4199.117	606.889
1051	1.075	0.0008	5	443.096	67.606	1558.057	145.006	2622.255	208.513	2937.892	6228.032	4170.078	777.383
1052	1.076	0.0008	4	434.396	80.860	1556.191	153.313	2641.112	200.487	4081.265	947.115	--undefined--	--undefined--
1053	1.077	0.0008	4	425.316	93.836	1551.859	159.345	2659.166	186.321	3963.559	988.630	--undefined--	--undefined--
1054	1.078	0.0008	4	414.898	106.835	1544.141	164.748	2675.584	165.782	3863.056	933.147	--undefined--	--undefined--
1055	1.079	0.0005	4	405.361	116.511	1533.789	170.661	2686.802	143.153	3795.110	846.829	--undefined--	--undefined--
1056	1.080	0.0005	4	400.942	120.044	1524.915	177.942	2691.581	126.490	3763.059	777.618	--undefined--	--undefined--
1057	1.081	0.0005	4	401.421	119.237	1518.660	187.433	2692.753	116.358	3753.564	734.558	--undefined--	--undefined--
1058	1.082	0.0005	4	405.730	114.885	1513.617	201.277	2691.640	110.791	3757.910	713.125	--undefined--	--undefined--
1059	1.083	0.0005	4	412.309	107.562	1508.915	218.266	2688.215	109.960	3773.106	717.519	--undefined--	--undefined--
1060	1.084	0.0005	4	418.106	100.414	1504.639	230.965	2683.445	111.657	3793.577	737.188	--undefined--	--undefined--
1061	1.085	0.0005	4	422.404	95.082	1501.848	235.647	2678.222	112.941	3818.038	754.210	--undefined--	--undefined--
1062	1.086	0.0005	4	425.804	91.627	1502.254	230.697	2672.333	112.114	3852.468	752.364	--undefined--	--undefined--
1063	1.087	0.0005	4	427.990	91.298	1508.195	214.553	2666.833	108.108	3896.822	706.854	--undefined--	--undefined--
1064	1.088	0.0005	4	428.980	94.000	1517.394	193.623	2663.142	102.992	3937.146	627.158	--undefined--	--undefined--
1065	1.089	0.0005	4	429.688	98.346	1526.854	172.923	2660.792	98.714	3968.259	540.275	--undefined--	--undefined--
1066	1.090	0.0005	4	431.367	103.916	1536.831	151.411	2658.944	95.794	3994.307	448.651	--undefined--	--undefined--
1067	1.091	0.0005	4	435.854	108.391	1546.574	131.825	2657.411	96.022	4013.336	367.521	--undefined--	--undefined--
1068	1.092	0.0005	4	443.281	108.266	1554.852	118.180	2656.228	100.478	4023.017	315.119	--undefined--	--undefined--
1069	1.093	0.0005	4	452.277	103.346	1562.450	109.085	2655.305	109.130	4025.909	285.975	--undefined--	--undefined--
1070	1.094	0.0005	4	462.893	93.335	1571.456	102.042	2654.595	125.268	4023.176	273.371	--undefined--	--undefined--
1071	1.095	0.0005	4	473.100	79.569	1582.433	97.023	2654.550	153.341	4014.280	282.145	--undefined--	--undefined--
1072	1.096	0.0005	4	480.078	66.773	1593.581	94.084	2655.497	191.653	4002.773	311.500	--undefined--	--undefined--
1073	1.097	0.0005	5	484.365	56.130	1604.393	92.185	2657.005	239.741	3993.055	358.014	4772.929	3543.366
1074	1.098	0.0005	5	487.194	45.944	1616.568	90.381	2657.828	310.649	3992.509	434.010	4070.390	2563.344
1075	1.099	0.0005	5	488.618	36.713	1629.439	88.248	2651.652	413.062	3684.254	1715.346	4032.492	515.848
1076	1.100	0.0005	5	488.899	29.895	1640.137	85.899	2626.335	521.807	3457.927	1178.711	4085.253	477.856
1077	1.101	0.0005	5	488.608	24.976	1648.496	83.421	2579.463	594.130	3366.041	843.109	4102.206	404.812
1078	1.102	0.0005	5	487.907	20.872	1655.958	80.498	2523.094	608.856	3333.948	604.165	4102.674	338.108
1079	1.103	0.0005	5	486.842	17.785	1662.022	77.525	2479.229	577.936	3327.988	447.987	4096.351	287.887
1080	1.104	0.0005	5	485.661	16.025	1665.818	75.497	2455.732	539.065	3331.307	359.031	4089.780	258.278
1081	1.105	0.0005	5	484.436	15.136	1667.985	74.518	2444.162	506.908	3336.913	304.667	4084.460	240.575
1082	1.106	0.0005	5	482.922	14.773	1669.232	74.490	2438.757	478.728	3343.965	263.502	4079.539	226.928
1083	1.107	0.0005	5	481.071	14.938	1669.669	75.644	2439.155	456.261	3351.793	233.474	4075.422	214.546
1084	1.108	0.0005	5	479.196	15.473	1669.670	77.678	2443.945	441.168	3358.951	215.299	4073.145	202.456
1085	1.109	0.0005	5	477.367	16.189	1669.683	80.295	2451.081	430.018	3365.646	204.302	4072.584	189.806
1086	1.110	0.0007	5	475.260	17.154	1670.037	84.065	2460.847	418.801	3373.567	196.719	4073.534	174.567
1087	1.111	0.0007	5	472.930	18.349	1671.196	89.383	2471.998	406.452	3383.260	192.536	4075.802	158.148
1088	1.112	0.0007	5	470.850	19.529	1673.297	95.446	2480.780	394.558	3393.292	191.550	4078.229	145.003
1089	1.113	0.0007	5	469.074	20.649	1676.304	101.834	2486.196	383.402	3403.315	192.452	4080.238	135.570
1090	1.114	0.0008	5	467.301	21.924	1680.974	109.343	2488.424	371.198	3415.081	195.006	4081.988	128.459
1091	1.115	0.0008	5	465.617	23.369	1687.625	117.009	2486.320	358.551	3428.335	199.436	4083.342	124.868
1092	1.116	0.0008	5	464.300	24.773	1694.752	122.295	2481.144	347.993	3440.406	205.092	4084.247	125.592
1093	1.117	0.0008	5	463.265	26.166	1701.583	124.904	2475.035	339.537	3451.034	211.820	4085.014	129.863
1094	1.118	0.0008	5	462.259	27.921	1708.974	125.223	2468.336	331.838	3462.245	221.312	4086.096	139.070
1095	1.119	0.0008	5	461.248	30.257	1716.529	123.108	2462.728	325.751	3474.101	234.326	4088.017	155.443
1096	1.120	0.0008	5	460.325	32.953	1722.889	119.704	2460.174	322.353	3485.056	248.163	4090.991	177.185
1097	1.121	0.0008	5	459.423	36.005	1728.196	115.889	2460.245	320.669	3495.430	261.089	4095.182	202.939
1098	1.122	0.0008	5	458.300	40.180	1733.458	111.167	2462.589	319.503	3507.332	273.640	4101.875	237.377
1099	1.123	0.0008	5	456.867	45.930	1738.362	105.522	2466.856	317.958	3520.299	282.873	4111.910	280.312
1100	1.124	0.0008	5	455.360	52.540	1741.923	100.000	2471.253	315.710	3531.238	286.065	4123.437	322.299
1101	1.125	0.0008	5	453.878	59.868	1744.285	94.820	2474.960	312.997	3539.765	284.800	4135.504	361.597
1102	1.126	0.0008	5	452.241	69.524	1745.878	89.109	2478.330	309.653	3547.304	279.732	4150.302	406.460
1103	1.127	0.0008	5	450.670	81.813	1746.463	83.045	2481.104	306.160	3553.324	270.959	4168.557	458.862
1104	1.128	0.0008	5	449.694	93.965	1746.066	77.743	2483.044	303.520	3556.854	260.850	4188.024	510.592
1105	1.129	0.0008	5	449.410	104.578	1745.075	73.165	2484.572	301.707	3558.356	250.712	4208.721	558.984
1106	1.130	0.0008	5	449.913	114.092	1743.460	68.391	2486.230	300.213	3558.054	239.569	4235.075	609.199
1107	1.131	0.0008	5	451.402	120.071	1741.262	63.502	2488.139	298.699	3555.479	228.861	4267.343	653.282
1108	1.132	0.0008	5	453.362	120.857	1738.979	59.366	2489.918	296.778	3551.343	221.495	4298.521	678.564
1109	1.133	0.0008	5	455.311	118.163	1736.739	55.968	2491.359	294.035	3546.367	217.407	4326.639	686.804
1110	1.134	0.0008	5	457.312	112.640	1734.104	52.719	2492.389	289.473	3539.676	216.148	4355.716	678.406
1111	1.135	0.0008	5	459.050	105.142	1730.992	49.864	2492.328	282.585	3530.845	218.995	4383.269	646.490
1112	1.136	0.0008	5	460.110	98.168	1727.877	47.957	2490.839	275.082	3521.256	225.686	4403.044	595.500
1113	1.137	0.0008	5	460.604	92.477	1724.797	46.861	2488.298	268.134	3511.487	235.063	4415.823	533.910
1114	1.138	0.0008	5	460.643	87.435	1721.120	46.381	2484.528	261.353	3500.313	248.485	4424.657	457.485
1115	1.139	0.0008	5	460.112	83.672	1716.772	46.696	2479.841	255.820	3489.116	265.755	4429.731	376.196
1116	1.140	0.0008	5	459.131	81.807	1712.519	47.662	2475.530	252.655	3481.386	282.693	4431.936	312.371
1117	1.141	0.0008	5	457.859	81.283	1708.501	48.979	2471.908	251.149	3477.586	297.909	4432.991	266.139
1118	1.142	0.0008	5	456.087	81.799	1704.034	50.766	2468.495	250.668	3477.708	313.532	4433.790	227.950
1119	1.143	0.0008	5	453.784	83.473	1699.268	52.964	2465.697	251.312	3483.216	328.857	4434.548	199.129
1120	1.144	0.0008	5	451.430	85.904	1695.118	55.085	2464.159	252.952	3492.785	341.806	4435.051	181.926
1121	1.145	0.0008	5	449.180	88.789	1691.554	57.003	2463.719	255.345	3504.552	353.617	4435.046	172.057
1122	1.146	0.0008	5	446.690	92.617	1687.794	58.971	2464.370	258.895	3520.009	368.083	4434.038	165.889
1123	1.147	0.0008	5	444.078	97.433	1683.711	60.743	2466.525	263.526	3539.015	387.720	4431.068	163.149
1124	1.148	0.0008	5	441.871	102.280	1679.777	61.826	2469.903	267.945	3558.017	411.432	4426.085	163.164
1125	1.149	0.0008	5	439.901	107.408	1675.478	62.254	2474.684	271.941	3578.657	442.771	4418.661	164.891
1126	1.150	0.0008	5	438.342	112.250	1671.150	62.045	2480.308	274.747	3599.343	479.652	4409.828	167.690
1127	1.151	0.0008	5	436.773	118.282	1665.387	61.128	2488.811	276.570	3627.800	536.701	4396.926	172.730
1128	1.152	0.0008	5	435.608	124.086	1659.579	59.819	2498.513	276.251	3659.309	603.225	4383.214	179.572
1129	1.153	0.0008	5	434.644	130.230	1653.312	58.256	2510.221	273.243	3699.002	684.512	4367.669	189.497
1130	1.154	0.0008	5	433.849	136.094	1647.238	56.761	2522.428	267.128	3745.598	770.167	4351.355	201.929
1131	1.155	0.0008	5	432.819	143.232	1639.479	55.033	2537.908	253.949	3819.479	880.536	4327.394	221.059
1132	1.156	0.0008	5	431.590	149.428	1631.944	53.707	2550.848	235.501	3906.465	973.930	4299.282	240.102
1133	1.157	0.0008	5	429.869	154.937	1624.130	52.962	2560.287	211.943	4006.873	1039.916	4264.599	254.515
1134	1.158	0.0008	5	427.717	159.497	1617.023	53.258	2564.579	188.271	4097.878	1063.478	4229.851	257.797
1135	1.159	0.0008	5	424.238	165.441	1608.973	55.789	2564.152	160.534	4187.886	1042.490	4190.664	249.700
1136	1.160	0.0008	5	420.107	172.737	1602.646	61.556	2559.314	138.626	4161.026	238.708	4242.940	986.730
1137	1.161	0.0008	5	415.126	182.618	1598.047	72.647	2551.479	121.757	4137.787	230.651	4273.023	915.429
1138	1.162	0.0008	5	410.145	193.177	1596.182	89.910	2542.667	111.115	4121.649	228.326	4282.789	850.560
1139	1.163	0.0008	5	404.493	204.418	1598.533	124.753	2530.778	103.744	4107.781	233.430	4277.079	780.523
1140	1.164	0.0007	5	400.902	208.049	1607.701	177.211	2519.046	101.402	4100.167	246.769	4257.711	724.148
1141	1.165	0.0007	5	399.851	200.303	1627.410	257.354	2506.664	102.684	4098.977	269.521	4224.860	672.496
1142	1.166	0.0007	5	400.985	182.197	1658.068	358.515	2494.782	106.628	4108.602	297.925	4179.411	628.269
1143	1.167	0.0007	5	403.534	150.955	1712.769	508.861	2479.574	113.819	4096.896	613.474	4144.390	302.912
1144	1.168	0.0007	5	405.670	121.189	1773.876	649.244	2465.083	120.375	4032.417	649.031	4166.416	259.874
1145	1.169	0.0005	5	407.293	96.926	1830.552	757.746	2451.660	124.230	3984.938	672.705	4177.346	223.086
1146	1.170	0.0005	5	408.519	81.361	1867.059	813.144	2442.020	125.163	3953.948	681.602	4184.005	198.532
1147	1.171	0.0005	5	409.806	69.502	1890.433	834.231	2434.336	124.980	3931.053	689.645	4189.639	178.094
1148	1.172	0.0005	5	410.758	63.002	1900.000	831.468	2430.397	125.185	3920.959	707.642	4192.693	165.915
1149	1.173	0.0005	5	411.425	58.967	1906.504	824.834	2428.627	126.544	3917.839	744.450	4193.701	158.142
1150	1.174	0.0005	5	411.769	56.556	1914.434	823.439	2428.395	129.179	3918.979	799.568	4192.876	153.621
1151	1.175	0.0005	5	411.877	54.635	1930.834	833.087	2429.320	134.834	3924.977	902.352	4189.738	150.289
1152	1.176	0.0005	5	411.734	53.572	1956.853	855.906	2430.820	143.640	3938.182	1048.379	4184.690	148.606
1153	1.177	0.0005	5	411.408	53.139	1999.472	892.679	2432.379	157.830	3967.928	1275.814	4177.317	147.497
1154	1.178	0.0005	5	410.974	53.288	2059.674	932.512	2433.199	177.590	4027.067	1603.528	4168.597	145.963
1155	1.179	0.0003	5	410.316	53.966	2157.181	959.964	2432.068	209.932	4157.397	142.909	4185.474	2207.934
1156	1.180	0.0003	5	409.266	55.083	2295.818	916.582	2423.879	262.156	4144.212	138.954	4960.198	3495.602
1157	1.181	0.0003	4	407.846	56.250	2396.452	318.319	2431.821	804.798	4131.498	136.663	--undefined--	--undefined--
1158	1.182	0.0003	4	406.073	57.382	2358.090	319.697	2544.756	739.879	4119.353	136.546	--undefined--	--undefined--
1159	1.183	0.0003	4	403.557	58.791	2334.036	293.817	2630.463	709.841	4105.570	138.555	--undefined--	--undefined--
1160	1.184	0.0003	4	400.228	60.716	2318.099	272.298	2697.207	692.039	4090.722	142.661	--undefined--	--undefined--
1161	1.185	0.0004	4	396.893	63.039	2305.702	260.084	2744.241	685.747	4078.115	147.011	--undefined--	--undefined--
1162	1.186	0.0004	4	393.965	65.761	2294.032	253.248	2779.109	688.370	4068.339	149.683	--undefined--	--undefined--
1163	1.187	0.0004	4	391.283	69.527	2279.930	247.907	2812.384	700.727	4060.672	148.615	--undefined--	--undefined--
1164	1.188	0.0004	4	389.377	74.552	2263.051	241.718	2847.506	725.081	4057.269	140.868	--undefined--	--undefined--
1165	1.189	0.0004	4	388.569	79.870	2246.876	233.973	2882.383	756.114	4058.429	129.568	--undefined--	--undefined--
1166	1.190	0.0004	4	388.331	85.189	2232.431	225.225	2917.201	789.312	4061.648	119.035	--undefined--	--undefined--
1167	1.191	0.0004	4	388.176	91.578	2217.779	215.138	2956.842	827.442	4066.008	109.692	--undefined--	--undefined--
1168	1.192	0.0004	4	387.678	99.308	2204.105	206.136	2996.541	866.770	4070.589	103.152	--undefined--	--undefined--
1169	1.193	0.0004	4	386.690	107.209	2193.823	201.995	3024.753	899.544	4074.114	100.366	--undefined--	--undefined--
1170	1.194	0.0004	4	385.321	115.144	2185.717	203.339	3040.486	928.416	4076.517	100.336	--undefined--	--undefined--
1171	1.195	0.0004	4	383.331	124.880	2176.157	213.518	3042.207	966.028	4077.914	103.444	--undefined--	--undefined--
1172	1.196	0.0004	4	380.502	137.642	2157.972	245.523	3007.244	1036.139	4076.963	112.689	--undefined--	--undefined--
1173	1.197	0.0004	4	377.042	154.300	2113.305	318.768	2881.037	1133.370	4071.918	131.360	--undefined--	--undefined--
1174	1.198	0.0004	5	373.149	179.492	1999.088	409.374	2669.178	985.386	4061.801	163.278	4822.025	3138.517
1175	1.199	0.0004	5	368.365	231.808	1834.013	340.866	2593.768	717.248	4044.091	223.796	4372.305	1900.457
1176	1.200	0.0004	5	357.959	360.543	1741.662	230.867	2555.678	672.471	4021.323	345.922	4229.394	1417.921
1177	1.201	0.0004	5	299.418	650.903	1701.141	195.211	2481.305	783.725	4033.075	615.671	4046.969	1028.344
1178	1.202	0.0004	4	1672.071	206.159	2316.901	967.622	3715.180	977.604	4172.858	577.495	--undefined--	--undefined--
1179	1.203	0.0004	4	1622.666	229.956	2028.248	777.082	3486.407	877.235	4189.948	467.627	--undefined--	--undefined--
1180	1.204	0.0004	4	1572.687	183.367	1974.913	454.989	3371.164	692.617	4184.118	379.301	--undefined--	--undefined--
1181	1.205	0.0004	4	1555.979	138.736	1970.114	340.258	3333.287	590.354	4177.466	322.823	--undefined--	--undefined--
1182	1.206	0.0004	4	1549.207	114.117	1967.801	290.078	3319.342	541.517	4172.998	287.078	--undefined--	--undefined--
1183	1.207	0.0004	4	1544.588	97.242	1965.610	260.465	3313.683	515.908	4169.279	258.911	--undefined--	--undefined--
1184	1.208	0.0004	4	1540.865	85.082	1963.663	243.233	3313.617	507.788	4165.873	236.367	--undefined--	--undefined--
1185	1.209	0.0004	4	1538.115	77.008	1962.411	235.297	3317.620	512.494	4162.969	220.475	--undefined--	--undefined--
1186	1.210	0.0004	4	1536.052	71.279	1961.823	232.789	3324.963	525.137	4160.430	208.915	--undefined--	--undefined--
1187	1.211	0.0004	4	1534.263	66.359	1961.987	234.920	3339.176	548.349	4157.854	199.051	--undefined--	--undefined--
1188	1.212	0.0004	4	1532.980	62.562	1963.671	244.243	3368.133	585.832	4155.718	192.371	--undefined--	--undefined--
1189	1.213	0.0004	4	1532.578	60.669	1967.576	261.727	3418.867	628.725	4155.294	192.233	--undefined--	--undefined--
1190	1.214	0.0004	4	1533.013	60.475	1974.258	288.252	3499.767	656.190	4158.010	200.837	--undefined--	--undefined--
1191	1.215	0.0004	4	1534.438	62.285	1985.734	334.116	3626.903	611.329	4169.423	224.205	--undefined--	--undefined--
1192	1.216	0.0004	4	1537.120	67.794	2000.561	417.271	3740.736	444.683	4200.847	252.925	--undefined--	--undefined--
1193	1.217	0.0004	4	1541.450	77.827	2010.810	554.790	3782.345	309.812	4235.730	252.516	--undefined--	--undefined--
1194	1.218	0.0004	4	1548.972	90.306	2015.260	774.160	3792.808	245.405	4256.133	243.097	--undefined--	--undefined--
1195	1.219	0.0004	4	1562.192	101.075	2025.958	1165.662	3792.661	216.776	4266.921	242.160	--undefined--	--undefined--
1196	1.220	0.0004	4	1578.570	104.401	2102.611	1740.595	3787.473	211.664	4271.752	253.736	--undefined--	--undefined--
1197	1.221	0.0004	4	1592.177	102.454	2281.135	2136.409	3781.991	218.955	4274.666	270.908	--undefined--	--undefined--
1198	1.222	0.0004	5	66.573	1454.216	1602.333	97.505	2447.453	2221.913	3777.619	231.851	4278.133	288.612
1199	1.223	0.0004	5	289.053	1302.660	1610.893	89.235	2574.000	2126.129	3773.512	251.648	4283.642	307.747
1200	1.224	0.0004	5	338.669	1240.627	1618.050	78.475	2649.337	1926.414	3769.144	278.343	4291.888	325.191
1201	1.225	0.0004	5	347.991	1236.523	1623.590	68.440	2676.343	1721.514	3764.324	304.163	4301.863	335.305
1202	1.226	0.0004	5	346.422	1254.036	1628.172	59.907	2678.077	1539.445	3758.798	323.677	4314.001	337.604
1203	1.227	0.0004	5	349.371	1271.249	1632.779	51.535	2666.619	1349.827	3751.937	333.417	4332.619	330.239
1204	1.228	0.0004	5	372.833	1260.148	1637.236	43.768	2649.906	1159.021	3745.312	324.163	4360.238	307.212
1205	1.229	0.0004	5	410.240	1216.569	1640.764	37.973	2637.757	1007.138	3741.778	300.958	4389.564	271.827
1206	1.230	0.0004	5	445.837	1161.035	1643.506	33.847	2631.661	895.484	3741.527	275.927	4415.320	232.348
1207	1.231	0.0004	5	477.983	1097.226	1646.047	30.538	2630.634	803.679	3744.817	251.703	4439.293	189.031
1208	1.232	0.0004	5	502.316	1031.781	1648.349	28.260	2635.638	735.725	3752.613	233.202	4459.386	149.262
1209	1.233	0.0004	5	516.682	973.329	1650.173	27.248	2645.219	695.785	3763.506	223.704	4473.375	121.935
1210	1.234	0.0004	5	525.543	916.540	1651.728	27.158	2657.744	672.744	3776.513	220.380	4483.684	104.158
1211	1.235	0.0004	5	532.728	846.164	1653.473	28.022	2675.462	658.138	3794.218	221.701	4493.489	91.191
1212	1.236	0.0002	5	538.579	761.517	1655.592	30.404	2699.279	653.331	3817.313	229.088	4503.295	83.983
1213	1.237	0.00009	5	541.997	685.793	1657.904	34.539	2725.588	660.856	3841.394	243.298	4512.049	84.028
1214	1.238	0.00009	5	543.364	629.631	1660.504	40.870	2754.717	681.092	3865.297	266.331	4520.128	91.354
1215	1.239	0.00009	5	543.448	592.691	1664.256	52.180	2795.682	721.455	3894.047	309.447	4529.331	112.004
1216	1.240	0.00009	5	542.819	589.759	1670.011	71.367	2855.362	786.110	3930.445	386.056	4539.307	160.716
1217	1.241	0.00009	5	541.868	623.553	1677.157	94.033	2926.076	856.311	3973.564	485.078	4545.988	247.563
1218	1.242	0.00009	5	539.655	685.226	1684.640	113.378	3003.377	918.572	4030.183	587.295	4544.711	385.700
1219	1.243	0.00009	5	532.353	791.039	1692.218	125.208	3099.610	974.639	4129.705	656.594	4525.791	664.850
1220	1.244	0.00009	5	508.921	968.242	1697.754	123.553	3212.533	1023.120	4205.901	532.278	4579.768	1275.884
1221	1.245	0.00009	5	445.937	1230.080	1699.995	113.256	3329.531	1071.156	4203.239	477.583	4799.862	1954.602
1222	1.246	0.00009	4	190.173	1673.446	1700.304	101.621	3467.554	1094.741	4198.812	482.840	--undefined--	--undefined--
1223	1.247	0.00009	4	1515.062	4268.457	1699.580	89.743	3636.481	987.247	4203.066	526.570	--undefined--	--undefined--
1224	1.248	0.00008	4	1698.377	79.770	1903.762	2401.395	3747.810	753.343	4232.424	594.231	--undefined--	--undefined--
1225	1.249	0.00008	4	1697.504	74.149	1950.477	1781.688	3784.785	577.691	4279.772	623.532	--undefined--	--undefined--
1226	1.250	0.00008	4	1697.226	72.479	1953.317	1453.387	3797.887	477.249	4321.347	613.344	--undefined--	--undefined--
1227	1.251	0.0001	4	1697.687	75.106	1936.257	1215.373	3806.057	412.775	4358.193	579.028	--undefined--	--undefined--
1228	1.252	0.0001	4	1699.285	84.310	1904.701	1039.371	3812.945	379.634	4387.864	528.149	--undefined--	--undefined--
1229	1.253	0.0001	4	1701.993	99.539	1871.073	926.527	3819.168	374.643	4406.016	479.250	--undefined--	--undefined--
1230	1.254	0.0001	4	1705.820	119.552	1840.136	853.283	3825.463	387.674	4415.273	440.402	--undefined--	--undefined--
1231	1.255	0.0001	4	1712.077	147.835	1806.764	800.051	3833.518	419.157	4417.992	409.050	--undefined--	--undefined--
1232	1.256	0.0001	4	1721.912	182.170	1770.194	774.770	3843.894	471.669	4412.864	389.940	--undefined--	--undefined--
1233	1.257	0.0001	4	1732.661	208.338	1736.045	787.951	3854.621	534.458	4401.289	384.170	--undefined--	--undefined--
1234	1.258	0.0001	4	1705.931	836.559	1740.644	220.785	3864.375	602.926	4385.243	385.172	--undefined--	--undefined--
1235	1.259	0.0001	4	1673.660	931.422	1744.638	221.456	3872.352	691.116	4361.991	387.683	--undefined--	--undefined--
1236	1.260	0.0001	4	1631.989	1077.396	1744.518	211.954	3871.293	801.269	4332.443	384.652	--undefined--	--undefined--
1237	1.261	0.0001	4	1576.438	1231.991	1743.328	200.134	3854.387	904.251	4306.170	374.437	--undefined--	--undefined--
1238	1.262	0.0001	4	1503.963	1359.565	1743.084	191.177	3826.071	983.044	4285.786	364.580	--undefined--	--undefined--
1239	1.263	0.0001	4	1402.779	1439.285	1744.315	185.966	3792.580	1045.320	4266.603	362.162	--undefined--	--undefined--
1240	1.264	0.0001	4	1292.828	1416.843	1746.856	186.381	3775.035	1106.133	4245.758	378.402	--undefined--	--undefined--
1241	1.265	0.0001	4	1222.661	1327.312	1748.756	190.820	3796.851	1200.744	4220.715	415.107	--undefined--	--undefined--
1242	1.266	0.0001	4	1187.461	1234.730	1748.290	196.577	3885.105	1403.916	4179.400	462.349	--undefined--	--undefined--
1243	1.267	0.0001	5	1179.768	1176.627	1744.473	200.898	3849.937	3988.503	4106.311	1768.738	4127.491	467.809
1244	1.268	0.0001	5	1195.922	1148.737	1734.968	203.395	3289.650	2860.655	4089.087	418.083	4452.790	1814.071
1245	1.269	0.0001	5	1232.581	1156.072	1722.083	202.857	3207.043	2570.468	4079.884	375.518	4605.159	1923.902
1246	1.270	0.0001	5	1285.969	1176.508	1706.617	199.795	3277.215	2429.976	4083.456	347.491	4788.105	2318.291
1247	1.271	0.0001	4	1340.380	1188.821	1691.911	194.741	3415.277	2211.897	4092.474	332.205	--undefined--	--undefined--
1248	1.272	0.0001	4	1395.857	1187.191	1675.611	185.599	3503.945	1828.329	4106.949	322.738	--undefined--	--undefined--
1249	1.273	0.0001	4	1424.519	1181.713	1663.489	174.438	3522.877	1567.298	4121.834	320.447	--undefined--	--undefined--
1250	1.274	0.0001	4	1428.098	1188.709	1654.622	161.232	3526.141	1394.276	4137.458	323.965	--undefined--	--undefined--
1251	1.275	0.0001	4	1409.797	1213.179	1649.137	148.129	3524.954	1296.288	4152.280	333.009	--undefined--	--undefined--
1252	1.276	0.0001	4	1359.202	1265.178	1645.010	131.976	3520.029	1247.611	4171.262	353.287	--undefined--	--undefined--
1253	1.277	0.0001	4	1280.741	1320.836	1642.813	117.765	3507.579	1285.104	4190.254	384.366	--undefined--	--undefined--
1254	1.278	0.0001	4	1172.744	1348.683	1641.613	105.227	3459.848	1464.212	4210.877	434.185	--undefined--	--undefined--
1255	1.279	0.0001	5	1067.688	1324.378	1641.234	96.192	3241.481	1686.236	4230.540	509.300	4414.461	2008.038
1256	1.280	0.0001	5	963.058	1255.974	1641.805	89.263	2967.292	1437.274	4237.411	717.209	4381.171	1023.761
1257	1.281	0.0001	5	896.536	1199.753	1643.599	87.067	2842.099	1185.056	4137.694	782.776	4493.127	683.058
1258	1.282	0.0001	5	853.624	1179.399	1646.783	88.703	2768.394	1016.854	4115.739	794.990	4530.774	577.237
1259	1.283	0.0001	5	827.961	1205.766	1650.714	93.070	2726.596	932.790	4123.832	855.653	4542.441	547.353
1260	1.284	0.0001	5	803.577	1304.631	1656.020	101.061	2698.635	899.711	4165.859	995.096	4537.600	572.839
1261	1.285	0.0001	5	776.772	1466.639	1660.501	109.924	2689.059	913.949	4255.309	1195.653	4505.692	642.114
1262	1.286	0.0001	5	732.891	1702.100	1663.734	118.983	2690.525	950.977	4426.284	1541.746	4436.193	683.922
1263	1.287	0.0001	5	662.773	1978.859	1665.120	126.309	2697.844	988.937	4383.675	682.317	4654.137	2002.874
1264	1.288	0.0001	5	517.212	2344.397	1664.752	132.678	2708.756	1020.595	4326.498	706.415	5354.067	2608.996
1265	1.289	0.0001	4	380.458	2534.363	1662.974	135.333	2715.442	1020.415	4262.269	748.896	--undefined--	--undefined--
1266	1.290	0.0001	4	438.300	2400.426	1660.713	134.856	2716.656	985.156	4179.888	785.086	--undefined--	--undefined--
1267	1.291	0.0001	4	555.423	2124.968	1658.939	132.441	2714.911	927.717	4096.859	782.544	--undefined--	--undefined--
1268	1.292	0.0001	4	651.137	1804.732	1657.643	128.706	2712.335	841.655	4013.181	729.686	--undefined--	--undefined--
1269	1.293	0.0001	4	701.749	1573.793	1657.258	126.023	2709.846	757.339	3964.493	664.929	--undefined--	--undefined--
1270	1.294	0.0001	4	731.642	1401.271	1657.357	124.924	2705.680	672.159	3938.931	607.589	--undefined--	--undefined--
1271	1.295	0.0001	4	748.254	1286.555	1657.482	125.225	2699.059	595.099	3929.575	567.510	--undefined--	--undefined--
1272	1.296	0.0001	4	761.028	1192.632	1656.987	125.917	2686.978	505.988	3929.003	535.258	--undefined--	--undefined--
1273	1.297	0.0001	4	770.525	1141.092	1655.176	124.745	2672.854	432.626	3933.597	520.718	--undefined--	--undefined--
1274	1.298	0.0001	4	781.937	1114.035	1651.677	120.301	2657.606	372.372	3939.037	519.857	--undefined--	--undefined--
1275	1.299	0.0001	4	796.409	1101.365	1647.347	113.942	2644.190	331.073	3942.029	528.621	--undefined--	--undefined--
1276	1.300	0.0001	5	819.672	1088.644	1641.644	105.780	2629.704	297.553	3940.768	545.255	5388.010	1116.984
1277	1.301	0.0001	5	844.639	1072.070	1636.679	99.721	2618.230	279.241	3934.478	559.892	5301.758	1064.464
1278	1.302	0.0001	5	869.736	1050.828	1632.320	95.853	2608.365	269.725	3924.915	569.670	5229.228	1000.815
1279	1.303	0.0001	5	890.197	1031.988	1628.973	94.394	2600.628	266.882	3915.712	573.604	5177.265	938.187
1280	1.304	0.0001	5	909.589	1017.688	1625.762	95.282	2592.664	269.290	3906.636	573.566	5135.646	865.801
1281	1.305	0.0001	5	920.549	1018.592	1623.642	98.658	2586.296	275.787	3901.068	570.851	5117.189	808.569
1282	1.306	0.0001	5	922.202	1035.563	1622.421	104.362	2580.284	284.267	3897.004	566.584	5113.826	762.250
1283	1.307	0.0001	5	911.909	1063.283	1622.256	111.150	2574.614	290.719	3892.668	561.099	5119.184	728.357
1284	1.308	0.0001	5	882.458	1099.670	1623.361	119.473	2567.882	292.285	3885.258	552.187	5129.366	697.285
1285	1.309	0.0001	5	824.867	1127.098	1626.383	128.174	2560.430	283.653	3873.204	537.856	5140.966	667.438
1286	1.310	0.0001	5	753.888	1115.724	1630.792	134.911	2554.462	266.599	3859.416	521.003	5148.996	641.725
1287	1.311	0.0001	5	687.312	1059.722	1635.719	140.133	2550.193	246.912	3846.172	505.159	5152.277	619.538
1288	1.312	0.0001	5	627.095	951.736	1641.291	146.029	2546.476	225.460	3832.860	492.273	5149.596	598.079
1289	1.313	0.0001	5	583.712	807.694	1646.412	155.221	2542.882	207.107	3822.774	491.440	5136.465	581.295
1290	1.314	0.0001	5	560.317	682.570	1649.440	169.676	2539.801	197.447	3820.841	508.972	5112.460	574.025
1291	1.315	0.0001	5	547.910	589.343	1650.415	191.230	2537.494	194.946	3827.298	541.497	5079.959	574.288
1292	1.316	0.0001	5	540.896	513.193	1648.932	228.041	2535.959	198.059	3843.153	590.926	5034.848	580.891
1293	1.317	0.0001	5	539.165	459.518	1642.451	288.779	2535.682	206.520	3865.853	649.619	4980.527	592.683
1294	1.318	0.0001	5	542.011	434.722	1628.686	367.785	2536.442	217.153	3884.512	697.830	4931.441	603.679
1295	1.319	0.0001	5	547.903	431.351	1605.483	460.056	2537.595	227.713	3895.150	733.429	4889.661	609.670
1296	1.320	0.0001	5	557.728	447.748	1563.357	575.692	2539.328	238.732	3898.003	762.587	4847.690	606.863
1297	1.321	0.0001	5	571.354	485.363	1497.796	686.568	2542.580	250.064	3891.880	781.268	4807.915	588.871
1298	1.322	0.0001	5	583.767	526.503	1435.315	732.672	2547.432	263.762	3881.683	788.813	4778.155	561.966
1299	1.323	0.0001	5	592.246	554.780	1397.733	717.397	2552.600	284.688	3871.485	797.156	4756.157	536.795
1300	1.324	0.0001	5	598.808	566.857	1387.915	664.763	2556.903	323.783	3859.260	822.819	4735.305	517.010
1301	1.325	0.0001	5	606.643	566.375	1405.574	604.947	2557.105	392.906	3841.446	883.400	4713.844	510.162
1302	1.326	0.0001	5	616.534	567.297	1435.323	565.268	2551.937	483.615	3817.611	968.734	4694.214	517.600
1303	1.327	0.0002	5	627.328	573.250	1467.431	540.930	2543.864	583.785	3789.873	1059.713	4676.504	535.594
1304	1.328	0.0002	5	639.522	581.585	1504.227	518.323	2535.147	695.371	3760.461	1156.453	4656.766	571.338
1305	1.329	0.0002	5	651.075	585.673	1541.526	488.975	2532.920	785.207	3749.243	1246.572	4631.199	638.749
1306	1.330	0.0002	5	659.164	582.260	1570.039	456.796	2541.679	815.448	3776.311	1318.433	4596.760	733.784
1307	1.331	0.0002	5	664.616	574.432	1590.775	427.078	2555.483	801.131	3835.222	1370.255	4549.246	840.589
1308	1.332	0.0002	5	668.704	561.487	1608.338	397.434	2568.572	757.404	3911.014	1390.517	4480.490	935.705
1309	1.333	0.0002	5	670.673	540.726	1621.501	369.780	2572.038	699.751	3922.420	1355.814	4427.161	916.276
1310	1.334	0.0002	5	670.249	514.196	1628.240	347.589	2563.272	648.047	3837.469	1249.852	4428.708	786.568
1311	1.335	0.0002	5	668.614	484.655	1630.437	328.607	2547.858	600.747	3743.303	1093.645	4443.407	645.175
1312	1.336	0.0002	5	666.394	449.194	1629.536	308.011	2528.179	545.559	3664.829	904.891	4454.760	507.239
1313	1.337	0.0002	5	664.408	411.484	1626.111	285.769	2509.664	484.513	3613.745	726.748	4460.083	393.052
1314	1.338	0.0002	5	663.379	381.053	1622.110	266.002	2497.774	433.978	3589.643	604.980	4461.499	320.630
1315	1.339	0.0002	5	663.057	357.886	1618.771	248.581	2490.687	396.034	3579.945	528.023	4461.551	276.721
1316	1.340	0.0002	5	663.122	337.029	1616.419	229.544	2485.439	363.941	3577.996	475.052	4460.664	247.131
1317	1.341	0.0002	5	663.355	318.685	1616.305	208.408	2480.848	339.092	3582.570	448.594	4458.075	232.119
1318	1.342	0.0002	5	663.505	305.189	1618.568	188.983	2476.412	323.190	3590.562	448.785	4453.346	231.075
1319	1.343	0.0002	5	663.519	295.707	1622.051	172.163	2471.851	312.087	3599.525	467.270	4446.284	239.094
1320	1.344	0.0002	5	663.397	288.865	1626.537	155.693	2466.718	301.149	3609.609	506.230	4434.665	256.221
1321	1.345	0.0002	5	663.146	286.414	1631.228	141.058	2462.234	288.681	3618.020	567.385	4416.931	281.615
1322	1.346	0.0002	5	662.883	288.994	1634.791	130.862	2460.160	276.185	3619.509	631.920	4397.108	305.744
1323	1.347	0.0002	5	662.680	294.801	1637.245	123.892	2460.032	264.456	3612.483	684.401	4378.995	323.191
1324	1.348	0.0002	5	662.554	303.662	1639.112	118.009	2461.149	252.182	3594.884	718.438	4363.393	334.306
1325	1.349	0.0002	5	662.568	314.670	1640.458	112.770	2463.079	240.801	3569.426	717.004	4355.255	338.170
1326	1.350	0.0002	5	662.633	325.421	1641.512	108.378	2465.323	233.212	3548.361	686.857	4356.013	337.842
1327	1.351	0.0002	5	662.478	336.009	1642.674	104.375	2467.863	229.352	3535.279	647.192	4361.565	336.928
1328	1.352	0.0002	5	661.654	348.953	1644.419	99.675	2471.185	228.979	3528.084	600.530	4370.237	337.000
1329	1.353	0.0002	5	659.559	364.537	1647.017	93.939	2475.059	233.459	3526.595	553.298	4379.800	339.705
1330	1.354	0.0002	5	656.476	379.254	1650.058	88.090	2478.199	241.779	3528.325	516.467	4386.839	345.415
1331	1.355	0.0002	5	652.909	391.621	1653.314	82.478	2480.066	252.097	3530.674	489.198	4391.114	353.692
1332	1.356	0.0002	5	648.441	402.253	1657.284	76.351	2480.359	265.009	3532.956	466.101	4393.360	366.353
1333	1.357	0.0002	5	643.116	408.127	1661.764	70.180	2478.021	278.440	3534.520	448.912	4393.219	384.129
1334	1.358	0.0002	5	637.801	406.974	1665.637	65.272	2473.405	287.701	3535.098	440.524	4391.293	402.774
1335	1.359	0.0002	5	632.547	400.464	1668.649	61.507	2467.546	292.351	3535.011	439.489	4388.570	418.685
1336	1.360	0.0002	5	626.309	388.361	1671.111	58.088	2459.888	293.452	3534.058	446.455	4384.979	427.774
1337	1.361	0.0002	5	619.071	371.484	1672.536	55.073	2450.680	291.695	3531.243	464.264	4380.839	413.883
1338	1.362	0.0002	5	612.196	355.202	1672.647	52.820	2441.852	289.871	3526.865	488.222	4377.435	371.726
1339	1.363	0.0002	5	605.941	341.766	1671.907	51.120	2433.885	289.839	3523.110	512.021	4375.170	317.355
1340	1.364	0.0002	5	599.341	329.645	1670.453	49.569	2425.534	292.461	3522.254	533.392	4373.630	258.003
1341	1.365	0.0002	5	592.869	319.086	1668.436	48.174	2417.082	297.878	3526.549	542.693	4372.643	207.456
1342	1.366	0.0002	5	587.880	310.482	1666.406	47.146	2410.337	303.405	3533.207	535.346	4371.947	175.942
1343	1.367	0.0002	5	584.147	302.592	1664.481	46.457	2405.851	306.822	3538.932	517.999	4371.190	157.324
1344	1.368	0.0002	5	580.650	293.305	1662.238	46.036	2403.800	306.345	3543.048	491.898	4369.927	145.393
1345	1.369	0.0002	5	577.020	282.560	1659.472	46.087	2405.841	298.452	3544.457	459.224	4367.681	140.824
1346	1.370	0.0002	5	573.449	273.023	1656.426	46.760	2411.564	284.056	3543.729	427.480	4364.421	143.953
1347	1.371	0.0002	5	569.919	265.768	1653.064	48.054	2419.291	266.460	3542.543	398.484	4359.979	153.350
1348	1.372	0.0002	5	565.890	260.704	1648.616	50.396	2429.520	244.963	3541.867	368.448	4352.699	171.892
1349	1.373	0.0002	5	561.624	259.991	1642.972	54.124	2441.426	222.572	3542.709	340.688	4340.663	202.473
1350	1.374	0.0002	5	557.988	264.257	1637.490	58.402	2451.872	205.450	3544.720	321.634	4324.897	237.166
1351	1.375	0.0002	5	554.858	271.704	1632.822	62.475	2460.140	193.501	3546.512	309.704	4306.998	266.681
1352	1.376	0.0002	5	551.425	282.266	1628.702	66.239	2467.212	184.076	3546.815	301.098	4286.273	285.115
1353	1.377	0.0002	5	547.497	294.594	1625.911	68.507	2472.366	177.355	3544.222	294.888	4267.814	282.126
1354	1.378	0.0002	5	543.688	305.809	1624.843	68.768	2475.338	173.797	3540.114	291.603	4257.553	266.068
1355	1.379	0.0002	5	540.143	315.976	1624.692	68.018	2477.316	172.368	3536.136	292.014	4253.201	250.345
1356	1.380	0.0002	5	536.358	327.245	1624.888	66.903	2479.381	172.435	3532.085	298.737	4252.175	238.634
1357	1.381	0.0002	5	532.684	339.743	1625.044	66.202	2482.095	174.118	3527.960	317.104	4254.010	236.205
1358	1.382	0.0002	5	529.991	351.749	1624.896	66.627	2485.305	177.021	3524.014	347.673	4257.757	244.969
1359	1.383	0.0002	5	527.993	364.944	1624.431	68.415	2489.216	181.320	3519.380	394.596	4263.368	264.937
1360	1.384	0.0002	5	526.561	378.434	1623.832	71.300	2493.112	186.552	3513.966	452.190	4270.221	292.439
1361	1.385	0.0002	5	524.717	396.089	1623.108	76.116	2497.346	194.430	3504.555	533.496	4281.171	333.904
1362	1.386	0.0002	5	522.226	411.465	1622.590	81.230	2499.298	202.828	3491.146	600.755	4294.768	373.184
1363	1.387	0.0002	5	518.554	422.491	1622.153	86.166	2497.569	211.716	3472.470	634.470	4312.113	405.180
1364	1.388	0.0002	5	514.269	426.634	1621.618	89.893	2491.962	219.340	3453.674	625.044	4329.236	423.221
1365	1.389	0.0002	5	508.484	424.731	1620.489	93.110	2481.074	226.499	3434.602	577.752	4346.879	431.181
1366	1.390	0.0002	5	503.120	418.743	1618.729	94.912	2469.400	230.552	3422.980	524.761	4357.407	430.451
1367	1.391	0.0002	5	497.935	410.700	1616.135	95.720	2458.343	232.807	3416.098	479.347	4362.470	428.611
1368	1.392	0.0002	5	493.233	402.653	1613.099	95.655	2449.984	234.387	3412.565	450.166	4363.338	430.949
1369	1.393	0.0002	5	487.134	393.378	1608.885	94.744	2442.685	237.343	3410.668	432.114	4360.801	444.525
1370	1.394	0.0002	5	480.663	387.018	1604.871	93.424	2438.699	242.638	3411.128	432.201	4355.385	472.989
1371	1.395	0.0002	5	473.132	385.097	1601.146	92.070	2437.406	251.779	3414.684	449.090	4346.585	523.899
1372	1.396	0.0002	5	465.352	389.548	1598.370	91.187	2439.078	264.249	3422.522	480.576	4334.711	597.861
1373	1.397	0.0002	5	454.775	405.890	1596.240	90.983	2446.224	284.632	3442.487	540.838	4313.681	736.710
1374	1.398	0.0002	5	443.455	434.174	1595.752	91.839	2459.801	307.006	3478.793	615.693	4285.904	933.241
1375	1.399	0.0002	5	429.540	476.894	1596.741	93.686	2481.564	329.010	3542.084	690.787	4251.636	1229.786
1376	1.400	0.0002	5	413.201	528.498	1598.730	96.151	2507.831	344.390	3619.459	719.465	4235.469	1631.791
1377	1.401	0.0002	5	386.124	606.845	1602.039	100.267	2544.379	353.131	3699.766	696.407	4321.584	2314.649
1378	1.402	0.0002	5	349.419	697.825	1605.527	105.654	2579.097	350.493	3753.460	671.807	4715.043	3228.336
1379	1.403	0.0002	4	291.189	813.363	1608.954	113.058	2611.190	338.924	3797.373	653.388	--undefined--	--undefined--
1380	1.404	0.0002	4	196.330	941.078	1611.375	121.560	2635.355	325.082	3830.418	641.607	--undefined--	--undefined--
1381	1.405	0.0002	3	1612.269	133.329	2656.713	312.004	3860.257	640.835	--undefined--	--undefined--	--undefined--	--undefined--
1382	1.406	0.0001	3	1610.157	144.318	2669.618	308.383	3875.191	661.754	--undefined--	--undefined--	--undefined--	--undefined--
1383	1.407	0.0001	3	1604.936	153.951	2677.462	313.928	3871.840	709.074	--undefined--	--undefined--	--undefined--	--undefined--
1384	1.408	0.0001	3	1598.165	161.020	2681.618	324.933	3843.080	769.928	--undefined--	--undefined--	--undefined--	--undefined--
1385	1.409	0.0001	4	163.691	716.249	1589.322	169.301	2686.465	340.407	3765.756	818.493	--undefined--	--undefined--
1386	1.410	0.0001	4	213.401	595.068	1582.440	181.181	2696.901	353.998	3682.930	780.199	--undefined--	--undefined--
1387	1.411	0.0001	4	234.990	510.508	1578.358	202.853	2719.226	370.839	3630.781	704.388	--undefined--	--undefined--
1388	1.412	0.0001	4	243.243	462.303	1578.194	235.064	2752.142	393.946	3610.011	656.053	--undefined--	--undefined--
1389	1.413	0.0001	4	246.233	432.474	1583.246	289.609	2806.165	431.706	3605.951	640.454	--undefined--	--undefined--
1390	1.414	0.0001	4	245.985	422.217	1591.661	344.454	2863.530	466.841	3614.707	651.203	--undefined--	--undefined--
1391	1.415	0.0001	4	244.659	419.349	1599.893	385.491	2916.738	491.558	3630.183	650.866	--undefined--	--undefined--
1392	1.416	0.0001	4	242.826	420.191	1605.205	403.259	2952.042	506.470	3644.650	615.061	--undefined--	--undefined--
1393	1.417	0.0001	5	238.533	431.316	1613.228	412.658	2975.670	531.285	3656.674	534.139	5436.808	1036.291
1394	1.418	0.0001	5	228.729	466.241	1632.029	432.683	2982.902	584.349	3660.439	457.857	5275.467	1018.213
1395	1.419	0.0001	5	202.655	548.191	1671.756	479.748	2976.683	695.953	3657.328	404.815	5203.252	1086.288
1396	1.420	0.0001	5	127.126	691.477	1725.031	541.809	2958.443	865.341	3651.030	381.154	5157.250	1251.675
1397	1.421	0.0001	4	1786.169	623.938	2921.205	1160.518	3642.468	379.790	5088.274	1596.827	--undefined--	--undefined--
1398	1.422	0.0001	4	1811.809	714.198	2841.460	1564.430	3632.586	397.088	4928.222	2038.838	--undefined--	--undefined--
1399	1.423	0.0001	4	1790.534	814.332	2519.300	1906.776	3619.334	417.403	4520.390	2211.641	--undefined--	--undefined--
1400	1.424	0.0001	4	1740.718	836.712	2354.717	1575.659	3607.412	426.225	4298.384	1740.567	--undefined--	--undefined--
1401	1.425	0.0001	4	1708.486	781.990	2376.236	1400.637	3599.099	424.386	4251.652	1390.809	--undefined--	--undefined--
1402	1.426	0.0001	4	1701.318	724.925	2423.384	1358.959	3598.819	419.061	4239.147	1246.817	--undefined--	--undefined--
1403	1.427	0.0001	4	1700.155	673.150	2473.552	1356.038	3605.207	415.488	4228.875	1197.475	--undefined--	--undefined--
1404	1.428	0.0001	4	1699.890	629.723	2521.299	1372.794	3616.965	414.360	4217.819	1211.363	--undefined--	--undefined--
1405	1.429	0.0001	4	1699.167	579.347	2588.413	1404.753	3639.375	412.257	4202.962	1293.568	--undefined--	--undefined--
1406	1.430	0.0001	4	1697.306	531.927	2664.071	1419.859	3667.475	402.395	4193.928	1432.277	--undefined--	--undefined--
1407	1.431	0.0001	5	167.272	1668.105	1693.087	481.334	2744.218	1388.502	3698.774	378.028	4203.630	1621.104
1408	1.432	0.0001	5	341.978	1438.940	1686.298	432.239	2801.513	1315.156	3724.876	344.781	4239.828	1797.038
1409	1.433	0.0001	5	421.711	1218.922	1675.519	375.657	2833.744	1217.286	3748.150	304.274	4301.669	1936.252
1410	1.434	0.0001	5	460.184	1024.224	1661.385	313.028	2837.112	1127.613	3767.648	263.583	4367.562	2002.427
1411	1.435	0.0001	5	473.072	887.320	1648.850	258.012	2820.900	1073.762	3781.845	232.730	4411.369	2019.913
1412	1.436	0.0001	5	474.559	795.913	1639.890	213.180	2795.119	1048.924	3792.913	210.302	4438.895	2042.396
1413	1.437	0.0001	5	469.511	729.782	1633.930	172.228	2756.982	1042.950	3803.875	190.765	4466.613	2114.272
1414	1.438	0.0001	5	458.831	694.782	1631.957	138.376	2706.320	1045.730	3814.757	173.524	4520.560	2294.096
1415	1.439	0.0001	5	445.636	690.682	1633.205	115.895	2657.599	1032.316	3823.589	159.691	4654.658	2616.558
1416	1.440	0.0001	5	431.667	704.080	1635.869	100.652	2619.915	987.349	3830.235	148.288	5102.145	3159.639
1417	1.441	0.0001	4	415.419	731.407	1639.697	87.665	2592.951	895.084	3835.368	138.072	--undefined--	--undefined--
1418	1.442	0.0001	4	399.019	768.194	1644.292	76.412	2579.047	761.956	3837.592	132.443	--undefined--	--undefined--
1419	1.443	0.0001	4	388.433	795.478	1648.311	68.071	2573.397	641.833	3836.175	135.173	--undefined--	--undefined--
1420	1.444	0.0001	4	385.183	800.108	1651.315	61.949	2570.335	552.876	3832.172	146.156	--undefined--	--undefined--
1421	1.445	0.0001	4	388.456	774.449	1653.499	56.706	2567.598	482.856	3825.352	169.615	--undefined--	--undefined--
1422	1.446	0.0001	4	395.474	720.094	1654.323	52.556	2564.252	436.665	3816.078	212.094	--undefined--	--undefined--
1423	1.447	0.0001	4	400.797	663.963	1653.719	49.953	2560.110	417.011	3807.360	270.809	--undefined--	--undefined--
1424	1.448	0.0001	4	403.255	618.376	1652.287	48.439	2555.276	414.360	3801.325	344.302	--undefined--	--undefined--
1425	1.449	0.0001	4	403.222	580.783	1650.132	47.639	2549.396	424.397	3800.951	447.966	--undefined--	--undefined--
1426	1.450	0.0001	4	400.514	559.120	1647.591	47.754	2543.886	444.701	3816.793	575.488	--undefined--	--undefined--
1427	1.451	0.0001	4	396.443	556.641	1645.392	48.610	2540.214	465.009	3854.311	672.804	--undefined--	--undefined--
1428	1.452	0.0001	4	392.261	563.176	1643.500	49.771	2536.096	481.765	3903.388	714.405	--undefined--	--undefined--
1429	1.453	0.0001	4	388.093	569.258	1641.341	51.236	2527.421	500.512	3955.131	708.017	--undefined--	--undefined--
1430	1.454	0.0001	4	384.974	562.514	1638.691	52.936	2510.907	525.786	3991.924	676.851	--undefined--	--undefined--
1431	1.455	0.00009	4	383.676	540.179	1635.968	54.540	2489.000	553.153	4005.138	655.616	--undefined--	--undefined--
1432	1.456	0.00009	4	383.549	508.978	1633.313	55.971	2463.320	576.983	4001.341	649.526	--undefined--	--undefined--
1433	1.457	0.00009	4	384.098	467.430	1630.272	57.362	2429.009	593.754	3979.463	651.480	--undefined--	--undefined--
1434	1.458	0.00009	4	384.916	418.889	1626.934	58.346	2387.817	590.247	3934.806	642.586	--undefined--	--undefined--
1435	1.459	0.00009	4	385.401	375.672	1624.076	58.421	2353.386	564.244	3884.333	601.824	--undefined--	--undefined--
1436	1.460	0.00009	4	385.403	340.110	1621.897	57.678	2329.866	528.044	3843.930	539.359	--undefined--	--undefined--
1437	1.461	0.00009	4	384.887	306.927	1620.168	56.149	2314.002	485.188	3812.545	463.172	--undefined--	--undefined--
1438	1.462	0.00009	5	383.846	278.630	1619.058	54.115	2306.111	445.079	3792.248	389.833	5357.919	1163.770
1439	1.463	0.00009	5	382.643	259.454	1618.472	52.311	2303.575	419.228	3782.474	336.829	5282.435	1094.341
1440	1.464	0.00009	5	381.434	246.506	1617.986	50.847	2302.236	405.757	3778.391	299.090	5246.063	1056.979
1441	1.465	0.00009	5	379.987	235.559	1617.224	49.392	2299.502	401.416	3777.433	265.734	5213.918	1026.864
1442	1.466	0.00009	5	378.247	225.539	1615.910	47.907	2293.011	407.881	3779.167	235.223	5178.481	990.886
1443	1.467	0.00007	5	376.550	216.710	1614.166	46.644	2282.586	422.741	3782.270	210.226	5144.825	945.600
1444	1.468	0.00007	5	375.021	208.498	1612.121	45.647	2268.994	442.415	3785.671	189.244	5116.125	892.413
1445	1.469	0.00007	5	373.449	199.335	1609.420	44.779	2250.243	468.834	3789.514	168.430	5090.306	824.657
1446	1.470	0.00007	5	371.840	189.429	1606.078	44.042	2228.384	499.550	3793.390	149.658	5071.548	749.147
1447	1.471	0.00007	5	370.298	180.312	1602.814	43.342	2212.223	524.884	3796.356	137.359	5062.982	688.249
1448	1.472	0.00007	5	368.665	171.594	1599.763	42.480	2205.542	542.045	3798.333	131.045	5061.091	645.962
1449	1.473	0.00007	5	366.489	161.158	1596.312	41.224	2210.446	551.963	3799.436	129.782	5063.711	617.104
1450	1.474	0.00005	5	363.678	148.898	1592.318	39.727	2230.274	551.476	3798.956	134.851	5070.229	606.632
1451	1.475	0.00005	5	360.852	137.643	1588.259	38.639	2257.650	542.809	3796.476	144.278	5078.169	613.406
1452	1.476	0.00005	5	358.201	128.236	1584.066	38.156	2285.617	531.542	3791.989	155.121	5086.179	629.398
1453	1.477	0.00005	5	355.196	119.429	1578.775	38.259	2315.743	519.390	3783.953	166.835	5095.014	652.433
1454	1.478	0.00005	5	351.574	111.789	1572.234	38.948	2345.132	509.761	3770.998	175.477	5103.421	675.582
1455	1.479	0.00005	5	347.602	106.214	1565.798	39.787	2368.130	505.387	3755.631	176.854	5108.746	686.157
1456	1.480	0.00005	5	343.249	101.880	1559.902	40.503	2385.904	504.806	3739.881	172.298	5111.072	681.332
1457	1.481	0.00005	5	337.669	97.549	1553.645	41.194	2402.254	507.000	3722.387	162.480	5111.308	658.729
1458	1.482	0.00005	5	330.987	93.185	1547.141	42.045	2416.170	511.627	3705.296	149.010	5110.365	618.963
1459	1.483	0.00005	5	324.767	89.628	1541.182	43.260	2424.852	516.990	3692.927	136.593	5109.973	578.252
1460	1.484	0.00005	5	319.261	86.942	1535.316	44.978	2429.045	521.920	3684.925	126.475	5110.828	545.040
1461	1.485	0.00005	5	313.330	84.725	1527.772	47.656	2429.942	525.768	3679.597	117.175	5113.522	517.325
1462	1.486	0.00005	5	306.730	83.182	1517.466	51.374	2428.332	524.949	3677.355	109.338	5118.949	499.597
1463	1.487	0.00005	5	300.340	82.415	1505.461	55.050	2427.478	516.228	3677.873	104.211	5126.736	494.841
1464	1.488	0.00005	5	294.257	82.043	1492.150	57.970	2430.011	499.825	3679.963	101.182	5136.745	499.654
1465	1.489	0.00005	5	287.488	81.742	1475.233	59.886	2438.583	472.868	3683.634	99.537	5151.652	514.469
1466	1.490	0.00005	5	280.434	81.367	1455.767	59.755	2454.800	437.184	3688.943	99.588	5173.256	541.352
1467	1.491	0.00005	5	274.670	81.184	1439.585	57.857	2473.001	405.633	3694.743	101.292	5198.639	575.875
1468	1.492	0.00005	5	269.860	81.780	1427.344	55.308	2490.204	382.095	3701.112	104.777	5230.919	621.280
1469	1.493	0.00005	5	266.428	83.583	1420.480	53.331	2502.300	371.266	3707.010	109.606	5269.430	673.308
1470	1.494	0.00005	5	263.498	87.606	1416.942	51.926	2511.048	372.226	3713.501	116.920	5336.556	747.260
1471	1.495	0.00005	4	261.878	92.643	1416.566	51.484	2513.748	384.203	3717.932	123.595	--undefined--	--undefined--
1472	1.496	0.00005	4	261.183	98.025	1417.261	51.551	2511.844	403.584	3719.805	128.336	--undefined--	--undefined--
1473	1.497	0.00003	4	261.275	102.284	1417.866	51.858	2506.224	425.265	3718.567	129.688	--undefined--	--undefined--
1474	1.498	0.00001	4	262.193	105.596	1417.938	52.465	2494.495	453.908	3713.282	126.878	--undefined--	--undefined--
1475	1.499	0.00001	4	263.715	106.545	1417.219	53.338	2479.255	480.555	3705.800	120.428	--undefined--	--undefined--
1476	1.500	0.00001	5	265.813	105.924	1415.830	54.698	2460.894	505.659	3697.578	111.654	5442.497	780.108
1477	1.501	0.00001	5	268.159	104.824	1414.150	56.514	2443.140	526.017	3690.926	103.326	5353.559	717.580
1478	1.502	0.00001	5	271.395	104.028	1411.905	59.548	2422.806	547.067	3685.124	94.910	5308.282	658.413
1479	1.503	0.000009	5	274.537	104.689	1409.979	63.151	2406.633	564.417	3682.132	89.844	5292.169	627.757
1480	1.504	0.000009	5	277.551	107.166	1408.554	67.443	2393.282	582.611	3681.026	87.580	5294.211	621.677
1481	1.505	0.000009	5	279.957	111.097	1407.945	71.787	2383.339	602.586	3681.203	87.704	5311.908	636.327
1482	1.506	0.000009	5	282.308	117.719	1408.222	77.226	2373.679	633.858	3682.355	89.996	5361.031	675.835
1483	1.507	0.000009	4	284.046	125.133	1409.340	82.014	2366.792	671.171	3683.964	93.510	--undefined--	--undefined--
1484	1.508	0.000009	4	285.609	133.156	1410.977	86.213	2361.835	717.022	3685.967	97.860	--undefined--	--undefined--
1485	1.509	0.000009	4	287.026	140.404	1412.592	89.328	2359.086	765.315	3688.147	102.341	--undefined--	--undefined--
1486	1.510	0.000005	4	288.729	148.490	1414.337	92.190	2357.991	829.152	3691.320	108.481	--undefined--	--undefined--
1487	1.511	0.000005	4	290.113	155.067	1415.547	94.183	2358.910	888.865	3694.872	115.147	--undefined--	--undefined--
1488	1.512	0.000005	4	291.104	160.756	1416.303	95.869	2361.195	941.813	3699.133	123.028	--undefined--	--undefined--
1489	1.513	0.000005	4	291.567	165.028	1416.585	97.375	2363.671	974.324	3703.680	131.093	--undefined--	--undefined--
1490	1.514	0.000005	4	291.637	168.684	1416.467	99.396	2365.606	980.520	3710.009	141.052	--undefined--	--undefined--
1491	1.515	0.000005	4	291.386	170.348	1416.067	101.563	2365.056	949.454	3716.539	149.146	--undefined--	--undefined--
1492	1.516	0.000005	4	290.912	170.520	1415.632	103.986	2361.960	890.392	3723.433	154.967	--undefined--	--undefined--
1493	1.517	0.000005	4	290.221	169.889	1415.428	106.281	2357.595	825.424	3729.571	157.677	--undefined--	--undefined--
1494	1.518	0.000005	4	288.888	169.085	1415.598	108.944	2351.792	750.215	3736.114	157.740	--undefined--	--undefined--
1495	1.519	0.000005	4	287.092	169.098	1416.111	111.082	2347.125	694.595	3740.807	155.574	--undefined--	--undefined--
1496	1.520	0.000005	4	284.829	170.242	1416.739	112.724	2343.946	656.175	3744.016	152.669	--undefined--	--undefined--
1497	1.521	0.000005	4	282.543	172.240	1417.187	113.653	2342.864	636.117	3745.745	150.700	--undefined--	--undefined--
1498	1.522	0.000004	4	279.738	175.465	1417.403	113.983	2344.312	627.488	3746.744	150.684	--undefined--	--undefined--
1499	1.523	0.000004	5	277.199	178.720	1417.319	113.544	2348.375	629.018	3747.112	153.922	5385.898	705.430
1500	1.524	0.000004	5	274.665	181.865	1417.115	112.484	2354.506	632.882	3747.351	160.741	5314.535	658.926
1501	1.525	0.000004	5	272.335	184.477	1416.968	111.150	2360.772	633.184	3747.657	169.950	5280.070	623.932
1502	1.526	0.00003	5	269.584	187.282	1416.975	109.467	2367.234	625.602	3748.204	183.914	5259.505	592.217
1503	1.527	0.00003	5	267.303	189.518	1417.212	108.342	2370.529	611.255	3748.751	197.868	5255.033	572.957
1504	1.528	0.00003	5	265.461	191.339	1417.670	108.138	2370.518	592.827	3749.089	210.684	5261.534	562.781
1505	1.529	0.00003	5	264.130	192.707	1418.332	109.300	2367.322	573.887	3748.988	220.214	5277.677	561.495
1506	1.530	0.00003	5	263.193	193.845	1419.186	112.135	2361.727	557.415	3748.410	225.397	5303.175	568.903
1507	1.531	0.00003	5	262.419	195.258	1420.208	116.750	2354.902	545.683	3747.568	226.928	5338.574	583.931
1508	1.532	0.0001	5	261.595	197.498	1421.311	122.993	2348.056	540.413	3746.792	226.891	5384.284	602.759
1509	1.533	0.0001	5	260.593	200.867	1422.323	130.441	2342.115	542.624	3746.325	227.658	5435.945	617.055
1510	1.534	0.0001	4	259.329	205.351	1423.043	138.484	2337.595	552.242	3746.232	230.888	--undefined--	--undefined--
1511	1.535	0.0001	5	257.674	210.948	1423.395	146.541	2334.915	567.846	3746.549	237.057	5400.947	592.002
1512	1.536	0.0001	5	255.422	218.163	1423.628	154.292	2334.977	586.512	3747.463	245.619	5346.546	551.336
1513	1.537	0.0001	5	252.359	228.274	1424.543	161.825	2339.511	603.395	3749.080	255.990	5306.141	507.858
1514	1.538	0.0001	5	248.379	243.483	1427.855	169.835	2350.752	612.217	3750.818	269.312	5282.279	476.051
1515	1.539	0.0001	5	243.507	267.198	1436.708	179.861	2369.880	609.469	3751.100	290.015	5272.625	465.855
1516	1.540	0.0001	5	237.917	303.162	1455.336	193.257	2395.124	600.888	3748.113	325.121	5272.223	481.079
1517	1.541	0.0001	5	232.680	350.740	1486.059	207.332	2423.427	597.698	3741.358	379.538	5272.399	514.981
1518	1.542	0.0001	5	231.610	399.892	1524.817	213.794	2453.248	600.796	3732.218	448.753	5259.139	546.190
1519	1.543	0.0001	5	240.253	436.704	1562.281	207.427	2481.790	598.966	3722.563	516.849	5224.167	550.499
1520	1.544	0.0001	5	259.648	454.835	1591.779	192.550	2503.723	585.582	3713.878	566.585	5178.439	523.178
1521	1.545	0.0001	5	284.381	457.617	1612.945	176.310	2515.620	564.655	3707.838	591.320	5138.271	478.964
1522	1.546	0.0001	5	307.838	452.563	1628.627	162.827	2517.335	542.807	3706.057	595.242	5111.350	433.807
1523	1.547	0.0001	5	326.102	446.359	1641.885	153.521	2509.690	523.941	3709.307	585.790	5098.359	395.563
1524	1.548	0.0001	5	338.055	442.526	1655.068	148.587	2493.068	508.760	3717.490	567.964	5097.317	365.342
1525	1.549	0.0001	5	344.231	440.766	1669.774	147.602	2467.761	495.450	3730.056	542.939	5105.432	340.880
1526	1.550	0.0001	5	346.052	437.103	1686.908	149.548	2435.155	480.723	3746.250	509.292	5119.546	318.888
1527	1.551	0.0001	5	345.483	425.315	1706.694	152.774	2398.577	461.847	3764.996	465.486	5136.432	296.711
1528	1.552	0.0001	5	344.457	400.396	1728.726	155.351	2362.717	439.008	3784.638	412.441	5153.364	273.463
1529	1.553	0.0001	5	344.016	362.227	1752.125	155.829	2331.756	415.705	3803.057	354.495	5168.628	250.212
1530	1.554	0.0001	5	344.097	315.878	1775.792	153.831	2307.851	396.410	3818.400	297.813	5181.589	229.129
1531	1.555	0.0001	5	344.213	268.190	1798.686	149.971	2291.078	383.885	3829.781	247.549	5192.375	212.325
1532	1.556	0.0001	5	344.066	224.310	1820.100	145.335	2280.279	378.229	3837.363	206.226	5201.465	201.230
1533	1.557	0.0001	5	343.602	186.625	1839.853	141.012	2273.923	377.398	3841.917	174.034	5209.427	196.747
1534	1.558	0.0001	5	342.859	155.512	1858.360	137.838	2270.681	378.191	3844.347	150.000	5216.827	199.845
1535	1.559	0.0001	5	341.905	130.430	1876.521	136.219	2269.748	377.528	3845.443	132.947	5224.298	212.307
1536	1.560	0.0001	5	340.856	110.637	1895.424	135.877	2271.011	374.190	3845.857	121.951	5232.781	237.546
1537	1.561	0.0001	5	339.891	95.475	1915.810	135.646	2275.056	370.071	3846.182	116.392	5244.200	281.550
1538	1.562	0.0001	5	339.260	85.270	1935.412	134.102	2282.039	368.952	3846.939	115.632	5260.970	345.728
1539	1.563	0.0001	5	338.999	77.084	1958.601	129.488	2295.635	374.042	3849.202	119.326	5303.016	467.356
1540	1.564	0.0001	5	339.329	73.091	1977.448	123.477	2313.257	384.456	3853.194	125.663	5427.749	636.373
1541	1.565	0.0001	4	340.193	71.917	1992.726	117.956	2334.567	396.692	3858.918	132.447	--undefined--	--undefined--
1542	1.566	0.0001	4	341.363	72.545	2003.424	115.104	2354.689	404.945	3864.416	137.228	--undefined--	--undefined--
1543	1.567	0.0001	4	343.100	74.083	2012.852	115.837	2375.161	406.901	3869.045	141.430	--undefined--	--undefined--
1544	1.568	0.0001	4	344.877	75.090	2019.123	120.863	2387.158	401.349	3870.339	145.409	--undefined--	--undefined--
1545	1.569	0.0001	4	346.722	75.308	2024.271	129.193	2393.265	392.579	3869.609	148.998	--undefined--	--undefined--
1546	1.570	0.0001	4	348.357	75.057	2029.029	138.086	2396.295	385.328	3868.592	149.600	--undefined--	--undefined--
1547	1.571	0.0001	4	350.045	74.419	2035.640	148.496	2398.638	379.630	3868.110	145.562	--undefined--	--undefined--
1548	1.572	0.0001	4	351.095	73.456	2042.467	156.787	2399.217	376.719	3868.603	138.660	--undefined--	--undefined--
1549	1.573	0.0001	4	351.550	72.159	2049.561	163.625	2397.803	374.615	3869.994	130.370	--undefined--	--undefined--
1550	1.574	0.0001	4	351.486	70.801	2055.859	168.838	2394.925	372.286	3872.075	122.398	--undefined--	--undefined--
1551	1.575	0.0001	4	350.987	69.054	2062.837	174.666	2390.205	367.931	3875.599	112.776	--undefined--	--undefined--
1552	1.576	0.0001	4	350.306	67.370	2068.437	180.680	2385.627	362.144	3879.695	104.241	--undefined--	--undefined--
1553	1.577	0.0001	4	349.516	65.640	2073.174	188.506	2381.708	354.978	3884.377	96.338	--undefined--	--undefined--
1554	1.578	0.0001	4	348.726	64.098	2076.717	198.161	2379.213	347.637	3888.873	90.025	--undefined--	--undefined--
1555	1.579	0.0001	4	347.695	62.418	2080.018	214.117	2377.808	337.805	3894.213	83.913	--undefined--	--undefined--
1556	1.580	0.0001	4	346.713	61.147	2082.186	233.715	2377.968	327.416	3898.762	79.952	--undefined--	--undefined--
1557	1.581	0.0001	4	345.774	60.181	2083.803	258.013	2379.252	315.683	3902.775	77.687	--undefined--	--undefined--
1558	1.582	0.00006	4	345.009	59.571	2085.430	282.998	2381.086	304.878	3905.847	77.175	--undefined--	--undefined--
1559	1.583	0.00006	4	344.211	59.170	2089.080	313.308	2383.679	294.635	3908.706	78.651	--undefined--	--undefined--
1560	1.584	0.00006	4	343.548	59.093	2095.657	336.839	2386.189	291.209	3910.434	82.202	--undefined--	--undefined--
1561	1.585	0.00006	4	342.902	59.211	2105.906	351.369	2389.153	296.034	3911.188	88.005	--undefined--	--undefined--
1562	1.586	0.00006	4	342.314	59.337	2117.118	353.847	2393.177	308.004	3910.934	95.149	--undefined--	--undefined--
1563	1.587	0.00006	4	341.611	59.209	2128.962	344.021	2401.304	328.684	3909.471	105.352	--undefined--	--undefined--
1564	1.588	0.00006	4	340.949	58.506	2134.334	329.169	2412.212	346.496	3907.372	114.878	--undefined--	--undefined--
1565	1.589	0.00006	4	340.220	57.014	2132.788	316.876	2424.167	355.348	3905.141	123.271	--undefined--	--undefined--
1566	1.590	0.00006	4	339.456	54.914	2125.466	311.386	2433.199	351.763	3903.210	130.236	--undefined--	--undefined--
1567	1.591	0.00006	5	338.424	51.563	2109.841	310.335	2439.821	331.947	3900.352	140.603	4773.181	1673.719
1568	1.592	0.00006	5	337.462	47.987	2090.845	308.955	2442.390	302.686	3895.858	155.367	4489.639	1288.569
1569	1.593	0.00006	5	336.621	44.407	2071.631	302.440	2442.960	270.766	3887.875	176.169	4329.519	966.571
1570	1.594	0.00006	5	336.034	41.591	2057.860	292.623	2442.260	245.983	3876.390	196.388	4250.303	744.506
1571	1.595	0.00006	5	335.537	39.157	2048.356	280.364	2439.940	225.993	3858.954	210.737	4209.461	565.886
1572	1.596	0.00006	5	335.190	37.914	2045.858	271.988	2436.482	217.441	3845.056	209.389	4201.236	470.050
1573	1.597	0.00006	5	334.859	37.463	2047.602	267.344	2432.152	216.625	3836.225	199.982	4206.176	414.049
1574	1.598	0.00006	5	334.556	37.516	2051.530	265.909	2428.118	220.640	3831.979	189.758	4216.178	381.139
1575	1.599	0.00006	5	334.220	37.848	2057.964	266.431	2424.376	228.551	3830.087	178.931	4231.187	351.996
1576	1.600	0.00006	5	333.968	38.154	2064.704	267.819	2423.218	235.766	3830.486	171.622	4245.635	329.656
1577	1.601	0.00006	5	333.749	38.315	2071.686	269.321	2424.885	240.201	3832.529	166.808	4259.438	309.628
1578	1.602	0.00006	5	333.534	38.320	2078.048	270.691	2428.506	240.584	3835.706	163.920	4270.828	293.488
1579	1.603	0.00006	5	333.217	38.222	2085.847	272.475	2434.099	237.079	3841.035	160.934	4282.746	277.683
1580	1.604	0.00006	5	332.887	38.114	2093.421	274.038	2439.060	232.377	3847.030	157.268	4292.120	267.526
1581	1.605	0.00006	5	332.577	38.023	2101.444	274.919	2443.253	228.864	3853.470	151.817	4300.390	261.860
1582	1.606	0.00006	5	332.349	37.950	2108.888	274.592	2446.602	228.257	3859.073	145.276	4307.265	260.339
1583	1.607	0.00006	5	332.138	37.855	2117.462	272.411	2450.891	231.679	3864.761	136.244	4314.834	262.270
1584	1.608	0.00006	5	331.965	37.740	2124.425	268.840	2456.045	238.621	3868.631	128.010	4320.879	266.829
1585	1.609	0.00006	5	331.779	37.572	2130.164	264.548	2463.041	248.177	3871.282	120.892	4325.571	273.561
1586	1.610	0.00006	5	331.599	37.350	2134.338	261.283	2470.984	257.947	3872.948	115.988	4328.221	281.590
1587	1.611	0.00006	5	331.381	36.998	2138.607	260.451	2481.547	269.925	3874.559	112.491	4328.951	294.275
1588	1.612	0.00006	5	331.166	36.658	2142.776	265.055	2490.608	281.187	3876.161	111.760	4327.081	309.916
1589	1.613	0.00006	5	330.901	36.429	2148.298	277.111	2497.230	293.728	3878.241	113.454	4322.776	330.600
1590	1.614	0.00006	5	330.594	36.451	2155.394	296.407	2499.593	307.062	3880.700	117.018	4316.908	354.425
1591	1.615	0.00006	5	330.176	36.914	2167.646	332.770	2495.722	324.851	3884.325	123.441	4307.932	388.964
1592	1.616	0.00009	5	329.829	37.828	2183.354	382.509	2483.672	338.311	3887.960	130.643	4298.827	424.153
1593	1.617	0.00009	5	329.597	39.180	2202.624	454.716	2462.940	337.304	3891.252	138.119	4290.401	458.495
1594	1.618	0.00009	5	329.504	40.684	2216.533	545.845	2442.583	310.095	3893.289	144.407	4284.819	484.373
1595	1.619	0.00009	5	329.487	42.626	2213.965	663.277	2431.610	256.150	3893.939	150.774	4282.083	503.338
1596	1.620	0.00009	5	329.491	44.344	2197.945	743.552	2432.329	213.251	3892.977	155.442	4283.040	507.003
1597	1.621	0.00009	5	329.487	45.892	2179.836	792.867	2436.313	181.411	3891.527	159.207	4285.146	499.313
1598	1.622	0.00009	5	329.507	47.149	2166.950	818.349	2440.228	160.343	3890.948	162.017	4285.724	485.929
1599	1.623	0.00009	5	329.610	48.530	2158.886	836.192	2444.180	142.627	3892.261	164.661	4282.855	466.268
1600	1.624	0.00009	5	329.778	49.736	2158.699	848.195	2446.903	131.777	3895.382	166.276	4277.052	447.467
1601	1.625	0.00009	5	329.959	50.925	2164.323	859.521	2448.893	124.666	3899.400	167.029	4270.027	429.145
1602	1.626	0.00009	5	330.075	52.008	2173.525	869.422	2450.185	120.654	3902.857	167.052	4264.320	413.482
1603	1.627	0.00009	5	330.125	53.309	2188.775	878.992	2451.116	118.304	3905.879	166.646	4259.698	396.557
1604	1.628	0.00009	5	330.108	54.479	2205.877	882.758	2451.311	118.175	3907.254	166.465	4257.673	382.974
1605	1.629	0.00009	5	330.062	55.610	2224.628	878.725	2450.848	119.772	3907.356	167.125	4256.888	370.614
1606	1.630	0.00009	5	329.990	56.612	2241.542	866.318	2449.987	122.570	3906.577	168.872	4256.193	359.450
1607	1.631	0.00009	5	329.813	57.808	2259.364	839.291	2448.893	127.379	3905.047	172.595	4254.137	344.883
1608	1.632	0.00009	5	329.514	58.891	2271.450	803.408	2448.605	132.909	3903.735	177.310	4250.412	329.847
1609	1.633	0.00009	5	329.084	59.882	2278.462	758.967	2449.900	139.190	3903.260	182.627	4244.987	313.595
1610	1.634	0.00009	5	328.629	60.594	2280.441	714.070	2453.069	145.148	3904.096	187.264	4239.187	298.744
1611	1.635	0.00009	5	328.099	61.099	2278.272	659.895	2459.651	151.720	3906.995	191.586	4232.377	282.429
1612	1.636	0.00009	5	327.707	61.225	2273.696	615.887	2467.763	156.142	3911.161	193.499	4227.502	270.245
1613	1.637	0.00009	5	327.459	61.143	2269.084	582.463	2476.404	158.574	3915.845	192.905	4224.763	261.500
1614	1.638	0.00009	5	327.392	61.029	2267.136	563.977	2483.172	159.668	3919.496	190.177	4224.261	256.757
1615	1.639	0.00009	5	327.540	61.006	2270.501	558.535	2488.069	161.122	3921.889	184.767	4225.634	255.252
1616	1.640	0.00009	5	327.894	61.199	2281.535	570.853	2488.016	163.554	3921.653	178.693	4227.880	258.433
1617	1.641	0.00009	5	328.400	61.653	2302.079	601.828	2482.553	166.103	3919.398	172.424	4230.148	267.123
1618	1.642	0.00009	5	328.906	62.319	2329.228	649.097	2472.922	165.327	3916.366	167.066	4231.660	280.964
1619	1.643	0.00009	5	329.453	63.460	2368.702	731.270	2458.564	155.909	3912.712	161.424	4232.407	305.937
1620	1.644	0.00009	5	329.831	64.830	2405.014	821.274	2447.066	141.566	3910.255	157.066	4232.181	335.935
1621	1.645	0.00009	5	330.083	66.454	2436.290	906.710	2438.458	128.476	3908.963	153.364	4231.801	368.974
1622	1.646	0.00009	5	330.233	68.224	2431.676	120.468	2458.633	970.048	3908.546	150.324	4232.417	398.547
1623	1.647	0.00009	5	330.300	69.991	2425.500	118.533	2469.117	1000.413	3908.453	148.423	4234.864	417.543
1624	1.648	0.00009	5	330.298	71.586	2419.190	122.329	2467.611	997.406	3908.239	148.569	4238.807	421.920
1625	1.649	0.00009	5	330.257	72.858	2412.632	130.829	2457.181	970.033	3907.680	151.707	4242.823	412.799
1626	1.650	0.00009	5	330.239	73.706	2406.472	142.614	2441.977	930.404	3906.662	158.413	4245.440	395.166
1627	1.651	0.00009	5	330.315	74.097	2402.249	156.423	2424.698	886.884	3905.124	168.612	4246.046	375.017
1628	1.652	0.00009	5	330.519	74.067	2402.347	171.815	2405.662	841.412	3903.166	181.439	4244.992	357.474
1629	1.653	0.00009	5	330.823	73.736	2383.404	793.280	2409.590	188.549	3901.171	195.290	4243.162	346.324
1630	1.654	0.00009	5	331.159	73.322	2356.134	747.411	2426.120	203.285	3899.710	207.992	4241.569	344.062
1631	1.655	0.00009	5	331.466	73.073	2325.169	717.447	2450.105	207.872	3899.154	216.974	4241.338	351.784
1632	1.656	0.00009	5	331.715	73.150	2296.390	712.059	2474.627	199.816	3899.232	219.713	4243.843	368.874
1633	1.657	0.00009	5	331.901	73.556	2273.744	727.606	2494.815	186.364	3898.991	214.933	4250.470	392.775
1634	1.658	0.00009	5	332.017	74.187	2257.850	757.912	2509.812	174.167	3897.481	203.736	4261.776	419.639
1635	1.659	0.00009	5	332.056	74.904	2249.008	797.858	2520.003	166.433	3894.618	189.105	4276.828	446.435
1636	1.660	0.00009	5	332.022	75.546	2248.423	842.190	2525.686	164.375	3891.272	174.141	4293.641	473.020
1637	1.661	0.00009	5	331.944	75.880	2258.065	884.260	2526.748	168.036	3888.660	160.819	4310.383	502.278
1638	1.662	0.00009	5	331.860	75.600	2279.716	916.025	2522.781	176.173	3887.756	149.758	4326.341	538.735
1639	1.663	0.00009	5	331.785	74.419	2313.278	929.386	2513.685	185.839	3889.028	140.488	4342.272	587.000
1640	1.664	0.00009	5	331.683	72.224	2355.129	917.502	2500.665	193.170	3892.380	131.926	4360.270	650.564
1641	1.665	0.00009	5	331.493	69.144	2398.750	875.772	2486.263	196.404	3897.219	123.081	4383.105	730.977
1642	1.666	0.00008	5	331.173	65.528	2438.604	805.164	2472.366	197.648	3902.649	113.761	4412.955	827.569
1643	1.667	0.00008	5	330.741	61.852	2458.430	199.605	2473.501	716.265	3907.773	104.704	4450.056	937.600
1644	1.668	0.00008	5	330.246	58.572	2442.520	200.216	2505.586	628.447	3911.895	97.054	4492.096	1055.982
1645	1.669	0.00008	5	329.732	56.039	2425.584	192.209	2534.927	563.236	3914.489	91.785	4534.359	1174.281
1646	1.670	0.00008	5	329.203	54.491	2412.361	175.220	2557.576	529.645	3915.093	89.480	4570.377	1280.913
1647	1.671	0.00008	5	328.644	54.112	2404.586	156.322	2571.955	524.790	3913.285	90.331	4593.737	1364.277
1648	1.672	0.00007	5	328.057	55.080	2401.111	139.836	2578.594	545.919	3908.767	94.178	4600.814	1416.730
1649	1.673	0.00007	5	327.492	57.563	2400.488	126.964	2577.310	591.682	3901.491	100.576	4591.837	1434.734
1650	1.674	0.0001	5	327.021	61.655	2401.555	117.815	2566.232	659.614	3891.669	108.900	4569.138	1414.621
1651	1.675	0.0002	5	326.689	67.277	2403.442	112.422	2541.841	743.179	3879.638	118.369	4536.036	1350.354
1652	1.676	0.0002	5	326.484	74.083	2405.519	110.961	2500.767	829.093	3865.792	127.788	4498.618	1240.240
1653	1.677	0.0002	5	326.355	81.446	2407.287	113.666	2444.200	898.961	3850.909	135.316	4465.906	1098.580
1654	1.678	0.0002	5	326.284	88.634	2381.413	939.825	2408.198	120.814	3836.701	139.245	4444.884	955.353
1655	1.679	0.0002	5	326.341	95.175	2326.502	955.060	2407.485	132.864	3825.620	139.764	4437.208	840.004
1656	1.680	0.0002	5	326.648	101.097	2291.175	960.992	2404.157	150.290	3819.700	139.268	4441.848	769.260
1657	1.681	0.0002	5	327.287	106.786	2280.911	974.165	2397.303	172.301	3819.770	140.479	4457.981	748.251
1658	1.682	0.0002	5	328.227	112.603	2294.511	1002.894	2386.989	194.783	3825.626	144.731	4485.309	776.140
1659	1.683	0.0002	5	329.333	118.731	2324.490	1045.564	2375.509	210.997	3836.451	151.582	4523.952	850.018
1660	1.684	0.0002	5	330.445	125.324	2360.314	1091.674	2366.438	217.490	3850.993	159.315	4575.234	967.240
1661	1.685	0.0002	5	331.430	132.621	2361.144	217.003	2394.588	1127.024	3867.533	165.832	4643.229	1126.940
1662	1.686	0.0002	5	332.155	140.928	2358.161	214.458	2424.907	1140.706	3883.950	169.583	4737.188	1329.812
1663	1.687	0.0002	5	332.451	150.576	2355.389	213.794	2450.851	1126.974	3898.133	170.141	4876.853	1575.229
1664	1.688	0.0002	5	332.113	161.864	2351.267	217.647	2471.542	1083.839	3908.560	168.157	5118.175	1855.871
1665	1.689	0.0002	4	330.968	174.971	2344.525	227.833	2485.772	1012.149	3914.465	164.749	--undefined--	--undefined--
1666	1.690	0.0002	4	328.975	189.886	2333.469	245.411	2493.855	915.893	3915.436	160.860	--undefined--	--undefined--
1667	1.691	0.0002	4	326.524	204.851	2317.407	266.821	2498.786	813.856	3911.581	157.242	--undefined--	--undefined--
1668	1.692	0.0002	4	323.022	224.311	2287.750	290.413	2507.670	689.594	3900.512	152.435	--undefined--	--undefined--
1669	1.693	0.0002	4	319.515	243.570	2254.119	295.394	2519.409	594.056	3884.993	146.689	--undefined--	--undefined--
1670	1.694	0.0002	4	315.844	264.562	2223.262	282.700	2529.801	521.972	3867.145	139.175	--undefined--	--undefined--
1671	1.695	0.0002	5	312.315	285.599	2201.425	263.747	2536.668	472.367	3851.952	131.420	5180.178	2205.032
1672	1.696	0.0002	5	307.641	313.560	2183.118	240.161	2542.823	428.562	3837.859	122.518	4893.325	2079.188
1673	1.697	0.0002	5	302.766	341.443	2172.270	221.915	2547.864	401.324	3829.856	115.887	4748.507	2016.473
1674	1.698	0.0002	5	297.311	370.515	2165.108	208.479	2553.157	384.446	3826.299	111.260	4653.611	1999.354
1675	1.699	0.0002	5	291.992	396.836	2160.206	200.710	2558.292	376.042	3826.369	109.081	4590.507	2011.764
1676	1.700	0.0002	5	285.472	426.794	2154.454	196.815	2564.436	371.563	3829.937	109.416	4522.894	2040.172
1677	1.701	0.0002	5	279.681	451.612	2147.646	198.021	2569.399	369.555	3836.085	112.880	4452.782	2056.470
1678	1.702	0.0002	5	274.397	473.118	2137.855	202.978	2573.120	366.274	3844.651	119.491	4367.145	2044.149
1679	1.703	0.0002	5	270.359	489.203	2125.300	209.479	2575.202	360.002	3854.291	128.076	4277.693	1999.441
1680	1.704	0.0002	5	266.924	503.514	2104.833	217.223	2576.350	347.242	3867.851	140.938	4166.092	1906.652
1681	1.705	0.0002	5	265.365	511.749	2081.127	221.374	2576.882	331.658	3881.810	153.937	4071.177	1799.892
1682	1.706	0.0002	5	265.196	515.877	2054.113	220.530	2577.842	314.931	3896.633	166.240	3991.646	1693.997
1683	1.707	0.0002	5	265.875	516.884	2028.561	215.029	2579.691	300.922	3909.945	175.108	3936.477	1614.721
1684	1.708	0.0002	5	267.103	515.759	1999.225	203.909	2583.501	287.456	3894.357	1554.882	3923.867	181.358
1685	1.709	0.0002	5	268.055	513.363	1975.459	191.896	2588.329	278.944	3879.968	1539.191	3932.753	182.825
1686	1.710	0.0002	5	268.410	510.160	1955.478	180.751	2593.717	274.016	3888.487	1559.827	3936.689	181.061
1687	1.711	0.0002	5	267.999	506.594	1940.389	173.075	2598.239	272.482	3914.601	1606.067	3935.813	177.365
1688	1.712	0.0002	5	266.458	501.141	1925.054	168.397	2602.065	274.386	3929.921	170.980	3965.812	1689.052
1689	1.713	0.0002	5	264.026	494.357	1912.139	169.211	2603.176	279.865	3921.057	163.969	4028.491	1783.077
1690	1.714	0.0002	5	260.744	484.686	1898.619	175.067	2601.390	288.622	3910.008	156.738	4103.537	1882.067
1691	1.715	0.0002	5	257.349	471.646	1884.437	184.254	2596.957	298.285	3898.804	150.638	4180.673	1960.989
1692	1.716	0.0002	5	253.583	447.437	1863.652	198.206	2588.200	309.059	3884.712	144.294	4281.763	2017.145
1693	1.717	0.0002	5	251.262	414.614	1840.591	210.750	2577.770	314.873	3871.999	139.203	4380.109	2015.360
1694	1.718	0.0002	5	250.166	372.399	1814.735	220.044	2566.502	315.411	3860.416	134.384	4483.414	1966.370
1695	1.719	0.0002	5	249.614	329.835	1790.661	224.818	2556.225	312.973	3851.606	130.336	4582.705	1897.169
1696	1.720	0.0002	5	248.499	280.694	1763.570	227.895	2542.687	311.070	3843.716	127.225	4707.179	1801.727
1697	1.721	0.0002	5	246.564	243.309	1741.903	231.906	2525.808	314.773	3838.820	128.225	4817.474	1706.091
1698	1.722	0.0002	5	243.761	216.394	1723.404	240.898	2500.008	325.812	3835.250	135.171	4907.250	1594.867
1699	1.723	0.0002	5	240.582	201.524	1708.406	255.673	2465.102	340.048	3832.016	147.993	4955.806	1470.909
1700	1.724	0.0002	5	236.064	194.448	1690.073	282.075	2407.644	351.800	3826.433	171.728	4967.336	1288.440
1701	1.725	0.00010	5	231.306	195.864	1669.774	310.226	2347.454	343.913	3818.475	199.374	4950.585	1102.846
1702	1.726	0.00010	5	226.117	202.413	1645.439	332.785	2294.906	316.726	3807.967	229.367	4929.332	930.422
1703	1.727	0.00010	5	221.209	211.945	1623.506	342.741	2262.540	288.099	3797.294	256.782	4912.873	805.719
1704	1.728	0.00010	5	215.159	228.365	1603.283	344.702	2242.751	264.585	3784.653	288.736	4894.787	700.123
1705	1.729	0.00010	5	209.312	248.674	1591.989	344.089	2237.338	257.610	3774.417	317.266	4876.754	634.411
1706	1.730	0.00010	5	203.005	273.265	1585.907	344.935	2239.056	262.605	3766.014	346.246	4856.463	585.790
1707	1.731	0.00005	5	196.963	297.500	1583.059	347.013	2243.999	274.445	3759.898	373.030	4836.926	549.738
1708	1.732	0.00005	5	190.068	325.311	1581.156	349.485	2251.665	293.135	3754.186	402.804	4814.154	512.762
1709	1.733	0.00005	5	185.387	345.772	1579.656	350.200	2258.440	309.848	3750.302	423.094	4795.880	483.493
1710	1.734	0.00005	5	183.624	358.468	1577.691	348.759	2263.464	322.268	3747.558	432.577	4781.510	458.209
1711	1.735	0.00005	5	185.139	362.093	1575.286	345.620	2265.756	328.069	3745.861	430.569	4772.419	438.635
1712	1.736	0.00005	5	190.591	356.564	1571.709	339.894	2265.420	327.903	3744.383	416.354	4766.534	419.530
1713	1.737	0.00002	5	198.016	343.343	1568.083	333.126	2262.546	322.153	3742.998	395.649	4765.426	406.415
1714	1.738	0.00002	5	206.407	324.608	1564.529	325.375	2257.946	313.003	3741.087	372.127	4767.513	397.873
1715	1.739	0.00002	5	213.874	305.209	1561.642	318.073	2252.955	303.540	3738.746	351.969	4771.294	394.559
1716	1.740	0.00002	5	221.785	282.129	1558.768	310.021	2246.799	292.991	3735.515	333.243	4777.146	396.913
1717	1.741	0.00002	5	227.723	263.481	1556.594	304.261	2241.630	285.858	3732.977	323.801	4783.215	405.688
1718	1.742	0.00002	5	232.481	248.343	1554.539	300.531	2237.280	282.223	3731.983	322.784	4790.135	420.926
1719	1.743	0.00002	5	236.015	237.573	1552.431	298.670	2234.120	282.130	3733.397	328.821	4797.892	439.937
1720	1.744	0.00002	5	239.642	227.443	1549.174	297.204	2231.221	285.296	3738.953	342.618	4810.219	467.291
1721	1.745	0.00002	5	242.723	219.510	1545.159	295.018	2229.165	289.807	3747.900	357.521	4824.804	492.526
1722	1.746	0.00002	5	245.812	211.658	1539.927	290.703	2227.348	294.102	3759.571	369.123	4841.314	511.084
1723	1.747	0.00002	5	248.700	204.020	1534.066	284.594	2225.688	296.959	3771.024	372.516	4855.673	515.919
1724	1.748	0.00002	5	252.210	194.254	1525.879	275.207	2223.775	299.571	3783.972	364.904	4868.773	502.316
1725	1.749	0.00002	5	255.329	185.309	1517.779	265.895	2222.644	303.154	3794.313	348.129	4875.149	473.855
1726	1.750	0.00002	5	258.213	177.118	1509.772	257.074	2222.882	310.358	3803.242	326.254	4876.530	437.477
1727	1.751	0.00002	5	260.561	170.802	1503.104	250.054	2224.773	321.607	3810.223	305.978	4874.814	403.884
1728	1.752	0.00002	5	263.011	164.965	1496.404	243.175	2229.223	341.568	3816.994	285.067	4871.077	368.185
1729	1.753	0.00002	5	264.933	161.359	1491.762	238.520	2234.809	365.024	3821.401	270.988	4867.723	341.580
1730	1.754	0.00002	5	266.580	159.380	1488.522	235.760	2240.795	391.393	3823.993	261.994	4865.564	320.144
1731	1.755	0.00002	5	267.845	158.905	1486.594	235.232	2245.664	416.163	3824.911	257.682	4865.050	303.688
1732	1.756	0.00002	5	269.043	159.839	1485.209	237.353	2249.872	445.200	3824.654	256.316	4866.141	285.877
1733	1.757	0.00002	5	269.797	161.940	1484.512	241.796	2251.654	470.032	3823.789	257.681	4868.208	270.399
1734	1.758	0.00002	5	270.210	165.013	1484.092	248.038	2251.278	492.214	3823.120	260.669	4870.599	255.803
1735	1.759	0.00002	5	270.316	168.443	1483.753	254.550	2249.160	509.365	3823.291	264.324	4872.636	244.003
1736	1.760	0.00002	5	270.186	173.065	1483.174	262.590	2244.807	525.543	3824.962	269.820	4874.701	232.839
1737	1.761	0.00002	5	269.903	177.506	1482.366	269.951	2239.711	536.127	3827.986	276.476	4876.265	226.397
1738	1.762	0.00002	5	269.528	181.931	1481.376	277.842	2234.348	543.217	3832.208	285.760	4877.598	224.236
1739	1.763	0.00002	5	269.102	186.261	1480.536	287.294	2229.665	547.872	3837.170	298.937	4878.705	226.737
1740	1.764	0.00002	5	268.648	190.555	1480.380	299.251	2226.812	551.702	3842.143	316.916	4879.489	233.879
1741	1.765	0.00002	5	268.198	194.916	1481.493	313.854	2227.050	556.931	3846.000	339.412	4879.833	244.859
1742	1.766	0.00002	5	267.790	199.248	1484.227	329.810	2231.559	565.926	3847.203	364.094	4879.757	257.736
1743	1.767	0.000009	5	267.485	203.011	1488.333	344.207	2241.298	579.944	3844.233	386.533	4879.534	269.648
1744	1.768	0.000009	5	267.363	205.247	1492.767	353.229	2256.951	597.805	3836.477	401.798	4879.603	277.902
1745	1.769	0.000009	5	267.517	205.062	1495.992	353.939	2278.620	615.662	3824.908	407.139	4880.280	281.256
1746	1.770	0.000009	5	268.029	202.283	1496.753	346.075	2305.208	628.592	3811.702	403.611	4881.520	280.254
1747	1.771	0.000009	5	268.948	197.745	1494.714	332.238	2334.163	633.272	3799.025	395.168	4882.966	276.518
1748	1.772	0.000009	5	270.287	192.881	1490.421	316.283	2362.272	629.698	3788.113	386.388	4884.189	271.859
1749	1.773	0.000008	5	272.053	188.969	1484.786	301.501	2386.970	620.687	3779.234	380.862	4884.835	267.775
1750	1.774	0.000008	5	274.255	186.629	1478.693	289.858	2407.089	610.095	3772.153	380.887	4884.605	265.301
1751	1.775	0.000008	5	276.902	185.756	1472.923	282.202	2422.732	601.311	3766.616	387.885	4883.135	265.001
1752	1.776	0.000008	5	279.973	185.756	1468.210	278.718	2434.801	596.491	3762.634	402.875	4879.948	267.031
1753	1.777	0.000008	5	283.386	185.854	1465.217	279.216	2444.674	596.144	3760.554	426.737	4874.572	271.281
1754	1.778	0.000008	5	286.992	185.373	1464.421	283.254	2454.068	598.878	3761.011	460.362	4866.771	277.678
1755	1.779	0.000008	5	290.592	183.894	1466.034	290.361	2464.827	601.640	3764.816	504.936	4856.692	286.613
1756	1.780	0.000005	5	294.001	181.303	1470.139	300.523	2478.397	600.891	3772.936	562.425	4844.688	299.249
1757	1.781	0.000005	5	297.094	177.777	1477.006	314.723	2495.108	594.593	3786.521	635.922	4830.927	317.418
1758	1.782	0.000005	5	299.847	173.698	1487.405	335.070	2513.885	583.983	3806.871	729.558	4815.082	343.083
1759	1.783	0.000005	5	302.342	169.515	1502.667	364.192	2532.935	573.757	3835.259	848.231	4796.326	377.540
1760	1.784	0.000005	5	304.726	165.576	1524.457	403.979	2551.011	570.283	3872.816	997.828	4773.568	420.428
1761	1.785	0.000005	5	307.112	162.061	1554.321	454.048	2568.269	579.126	3920.541	1186.240	4745.871	468.576
1762	1.786	0.000004	5	309.497	159.007	1593.147	510.494	2586.282	603.493	3978.811	1424.607	4713.384	514.877
1763	1.787	0.000004	5	311.739	156.332	1640.485	565.479	2607.573	643.556	4044.901	1724.615	4679.631	549.352
1764	1.788	0.000004	5	313.602	153.765	1693.424	608.582	2634.724	695.467	4109.189	2080.687	4653.150	567.840
1765	1.789	0.000004	5	314.845	150.818	1745.430	631.674	2668.182	750.361	4152.878	2437.733	4641.993	579.282
1766	1.790	0.000004	5	315.325	147.017	1787.843	636.133	2703.153	797.688	4141.997	2677.085	4648.398	592.819
1767	1.791	0.000004	5	315.076	142.315	1814.748	632.735	2730.276	833.247	4049.816	2678.887	4670.942	605.975
1768	1.792	0.000004	5	314.286	137.294	1825.256	631.919	2741.356	859.188	3913.330	2452.828	4704.864	608.426
1769	1.793	0.000004	5	313.142	132.848	1821.360	637.637	2733.675	874.681	3796.814	2126.249	4742.252	594.546
1770	1.794	0.000004	5	311.704	129.670	1805.872	648.772	2711.455	873.648	3725.544	1811.352	4776.943	568.781
1771	1.795	0.000004	5	309.896	127.969	1781.866	662.445	2683.908	854.730	3690.482	1555.304	4806.968	538.224
1772	1.796	0.000004	5	307.623	127.529	1752.710	676.102	2658.897	826.232	3675.340	1361.722	4832.392	507.445
1773	1.797	0.000004	5	304.903	127.940	1722.052	688.444	2639.820	798.699	3669.134	1220.574	4853.481	479.083
1774	1.798	0.000004	5	301.905	128.828	1693.371	699.661	2627.396	778.744	3666.299	1122.598	4870.453	455.351
1775	1.799	0.000004	5	298.870	129.963	1669.109	710.970	2621.714	768.104	3664.360	1061.215	4883.848	438.484
1776	1.800	0.000004	5	296.007	131.173	1650.013	723.777	2622.930	764.967	3662.559	1030.921	4894.756	430.529
1777	1.801	0.000004	5	293.461	132.245	1635.311	739.331	2630.999	766.381	3661.229	1026.408	4904.683	433.264
1778	1.802	0.000004	5	291.374	132.936	1623.678	759.094	2645.248	771.044	3661.305	1043.314	4915.213	448.557
1779	1.803	0.000004	5	289.948	133.171	1614.442	785.150	2664.596	781.345	3663.736	1080.549	4927.684	478.954
1780	1.804	0.000004	5	289.412	133.252	1608.645	820.069	2688.657	803.923	3668.941	1144.082	4943.017	528.279
1781	1.805	0.000004	5	289.918	133.893	1610.029	866.215	2719.677	848.927	3676.720	1253.389	4961.710	602.483
1782	1.806	0.000004	5	291.467	135.978	1626.130	923.953	2766.666	926.676	3687.874	1459.651	4984.008	712.200
1783	1.807	0.000004	5	293.938	140.213	1669.277	984.034	2854.898	1020.464	3724.975	1933.834	5010.165	885.193
1784	1.808	0.000004	5	297.182	146.935	1749.143	1002.095	2980.323	990.918	4341.799	3485.119	5032.456	1296.146
1785	1.809	0.000004	4	301.102	156.112	1832.882	920.480	3045.442	867.605	4665.129	1275.971	--undefined--	--undefined--
1786	1.810	0.000004	4	305.696	167.468	1879.540	802.693	3065.213	771.606	4628.650	1007.433	--undefined--	--undefined--
1787	1.811	0.000004	4	310.968	180.500	1899.477	711.713	3061.173	704.836	4631.478	843.372	--undefined--	--undefined--
1788	1.812	0.000004	4	316.673	194.290	1905.435	657.528	3040.822	656.210	4641.775	725.550	--undefined--	--undefined--
1789	1.813	0.000004	4	321.935	207.429	1902.913	637.521	3009.814	616.159	4650.540	637.966	--undefined--	--undefined--
1790	1.814	0.000004	4	325.253	218.572	1894.949	646.461	2975.718	578.636	4654.398	576.171	--undefined--	--undefined--
1791	1.815	0.000004	4	325.335	227.087	1884.686	676.919	2946.445	543.157	4652.659	537.485	--undefined--	--undefined--
1792	1.816	0.000004	4	322.112	233.061	1875.551	719.203	2926.028	512.537	4646.855	515.554	--undefined--	--undefined--
1793	1.817	0.000004	4	316.708	237.239	1869.868	761.924	2913.576	487.879	4640.421	500.021	--undefined--	--undefined--
1794	1.818	0.000004	4	310.424	240.842	1867.458	794.237	2905.933	467.332	4636.894	481.047	--undefined--	--undefined--
1795	1.819	0.000002	4	303.888	244.823	1865.010	809.260	2899.914	447.949	4637.612	453.636	--undefined--	--undefined--
1796	1.820	0.000002	4	297.659	248.837	1858.203	806.625	2893.771	429.265	4640.906	421.819	--undefined--	--undefined--
1797	1.821	0.000002	4	289.431	253.309	1839.458	785.388	2884.144	404.362	4645.714	379.444	--undefined--	--undefined--
1798	1.822	0.000002	4	281.062	255.976	1811.775	752.045	2873.402	380.008	4649.238	341.771	--undefined--	--undefined--
1799	1.823	0.000002	4	272.262	256.498	1778.056	709.503	2862.344	356.686	4651.356	309.375	--undefined--	--undefined--
1800	1.824	0.000002	4	264.371	254.788	1746.689	667.418	2853.544	338.986	4652.237	286.735	--undefined--	--undefined--
1801	1.825	0.000002	4	255.575	249.680	1712.340	619.153	2845.986	325.132	4652.529	269.789	--undefined--	--undefined--
1802	1.826	0.000001	4	248.483	241.839	1685.563	581.644	2842.462	321.436	4652.628	264.935	--undefined--	--undefined--
1803	1.827	0.000001	4	242.437	231.017	1663.197	552.505	2841.982	327.198	4653.054	270.910	--undefined--	--undefined--
1804	1.828	0.000001	4	237.773	218.928	1646.003	533.119	2843.539	340.253	4654.030	286.183	--undefined--	--undefined--
1805	1.829	0.000001	4	232.934	202.268	1628.031	517.204	2846.517	362.816	4656.182	316.970	--undefined--	--undefined--
1806	1.830	0.000001	4	228.855	185.618	1612.590	507.178	2848.495	383.490	4659.069	355.427	--undefined--	--undefined--
1807	1.831	0.000001	4	224.785	168.345	1596.740	497.974	2847.982	393.777	4662.388	398.197	--undefined--	--undefined--
1808	1.832	0.0000010	4	220.928	152.777	1581.685	486.641	2844.819	385.933	4665.000	432.469	--undefined--	--undefined--
1809	1.833	0.0000010	4	216.055	135.248	1564.378	465.396	2838.842	353.050	4666.454	455.431	--undefined--	--undefined--
1810	1.834	0.0000010	4	211.443	121.127	1551.897	438.044	2833.173	309.445	4665.731	452.753	--undefined--	--undefined--
1811	1.835	0.0000010	4	206.874	109.528	1544.899	405.749	2828.352	265.645	4663.559	430.435	--undefined--	--undefined--
1812	1.836	0.0000010	4	202.937	101.634	1544.292	375.236	2824.607	233.160	4660.997	400.877	--undefined--	--undefined--
1813	1.837	0.0000010	4	198.693	95.950	1550.902	340.897	2820.132	207.642	4657.550	364.735	--undefined--	--undefined--
1814	1.838	0.0000009	4	195.382	94.404	1562.646	314.118	2815.151	197.853	4653.785	338.674	--undefined--	--undefined--
1815	1.839	0.0000009	4	192.645	95.722	1577.032	293.127	2808.579	200.331	4648.968	323.280	--undefined--	--undefined--
1816	1.840	0.0000009	4	190.619	98.348	1589.501	279.395	2800.897	212.106	4643.383	319.292	--undefined--	--undefined--
1817	1.841	0.0000009	4	188.705	101.670	1600.153	269.430	2789.762	235.918	4635.027	326.349	--undefined--	--undefined--
1818	1.842	0.0000009	4	187.386	103.725	1603.085	265.710	2778.964	263.285	4625.897	342.960	--undefined--	--undefined--
1819	1.843	0.0000009	4	186.408	104.524	1597.622	265.474	2770.351	289.837	4615.807	367.906	--undefined--	--undefined--
1820	1.844	0.0000009	4	185.737	104.509	1584.688	265.926	2768.101	305.879	4606.672	395.983	--undefined--	--undefined--
1821	1.845	0.0000009	4	185.097	104.193	1559.841	263.408	2777.613	303.634	4597.818	431.478	--undefined--	--undefined--
1822	1.846	0.0000009	4	184.591	103.676	1530.394	255.570	2799.056	274.229	4594.051	457.722	--undefined--	--undefined--
1823	1.847	0.0000009	4	184.115	102.163	1497.824	242.965	2826.374	224.299	4595.290	470.268	--undefined--	--undefined--
1824	1.848	0.0000009	4	183.689	99.219	1468.721	229.793	2848.753	174.827	4599.335	469.065	--undefined--	--undefined--
1825	1.849	0.0000009	4	183.197	93.947	1438.987	215.203	2867.509	125.420	4604.764	458.918	--undefined--	--undefined--
1826	1.850	0.0000009	4	182.804	88.589	1420.126	205.037	2877.382	93.876	4608.091	448.309	--undefined--	--undefined--
1827	1.851	0.0000009	4	182.524	83.580	1410.424	198.009	2882.577	73.208	4609.026	437.519	--undefined--	--undefined--
1828	1.852	0.0000009	4	182.411	79.380	1408.454	192.715	2884.937	60.872	4608.121	423.943	--undefined--	--undefined--
1829	1.853	0.0000009	4	182.464	74.520	1411.362	184.754	2886.210	51.198	4606.229	397.529	--undefined--	--undefined--
1830	1.854	0.0000009	4	182.644	70.297	1415.251	174.311	2886.689	45.522	4605.454	362.865	--undefined--	--undefined--
1831	1.855	0.0000009	4	182.855	66.785	1417.348	161.616	2887.032	42.012	4606.772	322.808	--undefined--	--undefined--
1832	1.856	0.0000009	4	182.992	64.693	1416.673	150.002	2887.565	40.346	4609.829	286.968	--undefined--	--undefined--
1833	1.857	0.0000004	4	183.013	63.942	1412.892	138.306	2888.865	40.004	4615.035	249.253	--undefined--	--undefined--
1834	1.858	0.0000004	4	182.882	64.914	1407.539	130.962	2890.972	41.080	4620.431	220.943	--undefined--	--undefined--
1835	1.859	0.0000004	4	182.660	67.111	1401.347	127.115	2894.099	43.292	4625.935	197.681	--undefined--	--undefined--
1836	1.860	0.0000004	4	182.463	69.688	1395.577	126.432	2897.786	46.125	4630.939	179.574	--undefined--	--undefined--
1837	1.861	0.0000004	4	182.338	72.843	1388.970	128.645	2902.997	50.332	4636.994	160.404	--undefined--	--undefined--
1838	1.862	0.0000003	4	182.373	75.325	1383.491	133.006	2908.116	54.719	4642.575	145.063	--undefined--	--undefined--
1839	1.863	0.0000003	4	182.524	77.267	1378.645	138.878	2913.162	59.254	4647.999	132.429	--undefined--	--undefined--
1840	1.864	0.0000003	4	182.713	78.688	1374.640	144.683	2917.505	63.010	4652.550	123.939	--undefined--	--undefined--
1841	1.865	0.0000003	4	182.965	80.272	1369.767	150.707	2922.469	66.125	4657.230	118.101	--undefined--	--undefined--
1842	1.866	0.0000003	4	183.232	81.823	1364.435	153.702	2927.021	66.826	4660.558	117.154	--undefined--	--undefined--
